loggingSample(N),accelerometerAccelerationX(G),SQR_accelerometerAccelerationX(G),accelerometerAccelerationY(G),SQR_accelerometerAccelerationY(G),accelerometerAccelerationZ(G),SQR_accelerometerAccelerationZ(G),TOTAL_ACCELERATION,accelerometerTimestamp_sinceReboot(s),locationTimestamp_since1970(s),locationLatitude(WGS84),locationLongitude(WGS84)
1,0.232711792,0.054154778,-0.52973938,0.280623811,-0.825576782,0.681577023,1.008144638,1374607.395,1537498517,37.87156259,-122.2584521
2,0.180923462,0.032733299,-0.501342773,0.251344576,-0.852966309,0.727551524,1.005797892,1374607.455,1537498517,37.87156259,-122.2584521
3,0.154922485,0.024000976,-0.505203247,0.255230321,-0.8230896,0.67747649,0.978114404,1374607.515,1537498517,37.87156259,-122.2584521
4,0.163665771,0.026786485,-0.498306274,0.248309143,-0.858642578,0.737267077,1.006162365,1374607.574,1537498517,37.87156259,-122.2584521
5,0.13508606,0.018248244,-0.467330933,0.218398201,-0.883666992,0.780867353,1.008718889,1374607.634,1537498517,37.87164703,-122.2584493
6,0.067352295,0.004536332,-0.569580078,0.324421465,-0.90057373,0.811033043,1.067703536,1374607.694,1537498517,37.87164703,-122.2584493
7,0.055969238,0.003132556,-0.504257202,0.254275326,-0.842132568,0.709187262,0.983155707,1374607.753,1537498517,37.87164703,-122.2584493
8,0.030105591,0.000906347,-0.500244141,0.250244201,-0.856643677,0.733838389,0.992466088,1374607.813,1537498517,37.87164703,-122.2584493
9,0.076400757,0.005837076,-0.548934937,0.301329565,-1.026275635,1.053241679,1.166365431,1374607.873,1537498517,37.87164703,-122.2584493
10,-0.071777344,0.005151987,-0.34324646,0.117818132,-0.893188477,0.797785655,0.959560199,1374607.932,1537498517,37.87164703,-122.2584493
11,-0.162017822,0.026249775,-0.42137146,0.177553907,-0.911361694,0.830580137,1.017046616,1374607.992,1537498517,37.87164703,-122.2584493
12,-0.092437744,0.008544737,-0.347671509,0.120875478,-0.881637573,0.77728481,0.952210599,1374608.051,1537498517,37.87164703,-122.2584493
13,-0.120422363,0.014501546,-0.418624878,0.175246788,-0.970565796,0.941997964,1.063835654,1374608.111,1537498517,37.87164703,-122.2584493
14,-0.083435059,0.006961409,-0.570114136,0.325030128,-0.845031738,0.714078638,1.022775721,1374608.171,1537498517,37.87164703,-122.2584493
15,-0.0599823,0.003597876,-0.496353149,0.246366449,-0.803695679,0.645926744,0.946515224,1374608.23,1537498517,37.87164703,-122.2584493
16,-0.045898438,0.002106667,-0.452972412,0.205184006,-0.824386597,0.679613261,0.941755772,1374608.29,1537498517,37.87164703,-122.2584493
17,-0.048278809,0.002330843,-0.467346191,0.218412462,-0.83164978,0.691641357,0.955188286,1374608.35,1537498517,37.87164703,-122.2584493
18,-0.126495361,0.016001076,-0.369308472,0.136388747,-0.787399292,0.619997645,0.878855773,1374608.409,1537498517,37.87164703,-122.2584493
19,-0.206832886,0.042779843,-0.410354614,0.168390909,-0.799224854,0.638760367,0.921917089,1374608.469,1537498518,37.87169972,-122.2583713
20,-0.23991394,0.057558699,-0.370529175,0.13729187,-0.877822876,0.770573002,0.982559703,1374608.529,1537498518,37.87169972,-122.2583713
21,-0.211044312,0.044539702,-0.45022583,0.202703298,-0.973724365,0.948139139,1.093335328,1374608.588,1537498518,37.87169972,-122.2583713
22,-0.063308716,0.004007994,-0.441558838,0.194974207,-0.919128418,0.844797049,1.021655152,1374608.648,1537498518,37.87169972,-122.2583713
23,-0.064453125,0.004154205,-0.42338562,0.179255383,-0.927780151,0.860776009,1.021854,1374608.708,1537498518,37.87169972,-122.2583713
24,-0.089920044,0.008085614,-0.433135986,0.187606782,-0.921463013,0.849094084,1.022147974,1374608.767,1537498518,37.87169972,-122.2583713
25,-0.071212769,0.005071258,-0.429351807,0.184342974,-0.82951355,0.68809273,0.936753416,1374608.827,1537498518,37.87169972,-122.2583713
26,-0.132797241,0.017635107,-0.412902832,0.170488749,-0.928634644,0.862362302,1.02493227,1374608.886,1537498518,37.87169972,-122.2583713
27,-0.121643066,0.014797036,-0.415878296,0.172954757,-0.892028809,0.795715396,0.991699142,1374608.946,1537498518,37.87169972,-122.2583713
28,-0.128036499,0.016393345,-0.414047241,0.171435118,-0.898193359,0.80675131,0.997286204,1374609.006,1537498518,37.87169972,-122.2583713
29,-0.120895386,0.014615694,-0.399642944,0.159714483,-0.87437439,0.764530574,0.968948271,1374609.065,1537498518,37.87169972,-122.2583713
30,-0.112411499,0.012636345,-0.41784668,0.174595848,-0.913070679,0.833698065,1.010410935,1374609.125,1537498518,37.87169972,-122.2583713
31,-0.11869812,0.014089244,-0.414794922,0.172054827,-0.925018311,0.855658876,1.020687487,1374609.185,1537498518,37.87169972,-122.2583713
32,-0.107269287,0.0115067,-0.383468628,0.147048189,-0.926696777,0.858766917,1.008623718,1374609.244,1537498518,37.87169972,-122.2583713
33,-0.084777832,0.007187281,-0.304153442,0.092509316,-0.925521851,0.856590697,0.977899429,1374609.304,1537498518,37.87169972,-122.2583713
34,-0.132110596,0.01745321,-0.536499023,0.287831202,-0.819580078,0.671711504,0.988431037,1374609.364,1537498518,37.87169972,-122.2583713
35,-0.112701416,0.012701609,-0.487640381,0.237793141,-0.827392578,0.684578478,0.966991845,1374609.423,1537498518,37.87169972,-122.2583713
36,-0.084671021,0.007169182,-0.467025757,0.218113058,-0.883834839,0.781164023,1.003217953,1374609.483,1537498519,37.8716348,-122.2584102
37,-0.070236206,0.004933125,-0.441375732,0.194812537,-0.901367188,0.812462808,1.006085717,1374609.542,1537498519,37.8716348,-122.2584102
38,-0.080337524,0.006454118,-0.45954895,0.211185237,-0.864562988,0.74746916,0.982399367,1374609.602,1537498519,37.8716348,-122.2584102
39,-0.05682373,0.003228936,-0.477935791,0.22842262,-0.903381348,0.81609786,1.023596315,1374609.662,1537498519,37.8716348,-122.2584102
40,-0.084716797,0.007176936,-0.483703613,0.233969185,-0.871505737,0.75952225,1.000334129,1374609.721,1537498519,37.8716348,-122.2584102
41,-0.10043335,0.010086858,-0.445281982,0.198276043,-0.875747681,0.766934001,0.987571214,1374609.781,1537498519,37.8716348,-122.2584102
42,-0.076065063,0.005785894,-0.433792114,0.188175598,-0.886199951,0.785350353,0.989601862,1374609.841,1537498519,37.8716348,-122.2584102
43,-0.076568604,0.005862751,-0.473144531,0.223865747,-0.899215698,0.808588872,1.018978591,1374609.9,1537498519,37.8716348,-122.2584102
44,-0.151550293,0.022967491,-0.439865112,0.193481317,-0.870147705,0.757157029,0.986714668,1374609.96,1537498519,37.8716348,-122.2584102
45,-0.184204102,0.033931151,-0.480987549,0.231349022,-0.865951538,0.749872066,1.007547636,1374610.02,1537498519,37.8716348,-122.2584102
46,-0.219573975,0.04821273,-0.51272583,0.262887777,-0.935333252,0.874848292,1.089012764,1374610.079,1537498519,37.8716348,-122.2584102
47,-0.17401123,0.030279908,-0.49836731,0.248369976,-0.796737671,0.634790916,0.955740969,1374610.139,1537498519,37.8716348,-122.2584102
48,-0.149871826,0.022461564,-0.477935791,0.22842262,-0.864334106,0.747073447,0.998978294,1374610.199,1537498519,37.8716348,-122.2584102
49,-0.095840454,0.009185393,-0.50340271,0.253414288,-0.878677368,0.772073917,1.017189067,1374610.258,1537498519,37.8716348,-122.2584102
50,-0.117889404,0.013897912,-0.484176636,0.234427015,-0.84085083,0.707030118,0.977422654,1374610.318,1537498519,37.8716348,-122.2584102
51,-0.105957031,0.011226892,-0.436141968,0.190219816,-0.898025513,0.806449822,1.003940502,1374610.377,1537498519,37.8716348,-122.2584102
52,-0.1434021,0.020564162,-0.453613281,0.205765009,-0.893768311,0.798821794,1.01249739,1374610.437,1537498519,37.8716348,-122.2584102
53,-0.118408203,0.014020503,-0.476593018,0.227140905,-0.863677979,0.745939651,0.993529596,1374610.497,1537498520,37.8716348,-122.2584102
54,-0.135070801,0.018244121,-0.461090088,0.212604069,-0.867797852,0.753073112,0.991928073,1374610.556,1537498520,37.8716348,-122.2584102
55,-0.139099121,0.019348565,-0.464538574,0.215796087,-0.851318359,0.724742948,0.979738537,1374610.616,1537498520,37.8716348,-122.2584102
56,-0.13609314,0.018521343,-0.47756958,0.228072704,-0.867172241,0.751987696,0.999290619,1374610.676,1537498520,37.8716348,-122.2584102
57,-0.146957397,0.021596477,-0.469497681,0.220428072,-0.864151001,0.746756953,0.99437493,1374610.735,1537498520,37.8716348,-122.2584102
58,-0.18145752,0.032926832,-0.490890503,0.240973486,-0.836654663,0.699991025,0.986859333,1374610.795,1537498520,37.8716348,-122.2584102
59,-0.165313721,0.027328626,-0.477966309,0.228451793,-0.86541748,0.748947415,1.002361129,1374610.855,1537498520,37.8716348,-122.2584102
60,-0.170974731,0.029232359,-0.491500854,0.241573089,-0.834594727,0.696548358,0.983541461,1374610.914,1537498520,37.8716348,-122.2584102
61,-0.177597046,0.031540711,-0.494934082,0.244959746,-0.858200073,0.736507365,1.006482897,1374610.974,1537498520,37.8716348,-122.2584102
62,-0.169158936,0.028614746,-0.479507446,0.229927391,-0.84614563,0.715962427,0.987169977,1374611.034,1537498520,37.8716348,-122.2584102
63,-0.167709351,0.028126426,-0.480651855,0.231026206,-0.82850647,0.686422971,0.972407118,1374611.093,1537498520,37.8716348,-122.2584102
64,-0.160919189,0.025894985,-0.492599487,0.242654255,-0.874038696,0.763943642,1.016116569,1374611.153,1537498520,37.8716348,-122.2584102
65,-0.061248779,0.003751413,-0.492340088,0.242398762,-0.858642578,0.737267077,0.991673965,1374611.212,1537498520,37.8716348,-122.2584102
66,-0.056518555,0.003194347,-0.475189209,0.225804784,-0.885177612,0.783539405,1.006249738,1374611.272,1537498520,37.8716348,-122.2584102
67,-0.068374634,0.004675091,-0.491882324,0.241948221,-0.838500977,0.703083888,0.97452922,1374611.332,1537498520,37.8716348,-122.2584102
68,-0.088424683,0.007818925,-0.49017334,0.240269903,-0.865707397,0.749449297,0.998768304,1374611.391,1537498520,37.8716348,-122.2584102
69,-0.076446533,0.005844072,-0.496871948,0.246881733,-0.84576416,0.715317014,0.983891671,1374611.451,1537498520,37.8716348,-122.2584102
70,-0.070968628,0.005036546,-0.514160156,0.264360666,-0.863800049,0.746150525,1.007743885,1374611.511,1537498521,37.87157977,-122.2584462
71,-0.073623657,0.005420443,-0.519042969,0.269405604,-0.842971802,0.710601459,0.992687013,1374611.57,1537498521,37.87157977,-122.2584462
72,-0.072311401,0.005228939,-0.511627197,0.261762389,-0.835525513,0.698102883,0.982392086,1374611.63,1537498521,37.87157977,-122.2584462
73,-0.151596069,0.022981368,-0.524551392,0.275154163,-0.86428833,0.746994317,1.022315924,1374611.69,1537498521,37.87157977,-122.2584462
74,-0.162704468,0.026472744,-0.510406494,0.260514789,-0.824996948,0.680619964,0.983670421,1374611.749,1537498521,37.87157977,-122.2584462
75,-0.167282104,0.027983302,-0.504074097,0.254090695,-0.848388672,0.719763339,1.000918247,1374611.809,1537498521,37.87157977,-122.2584462
76,-0.168212891,0.028295577,-0.505462646,0.255492487,-0.835891724,0.698714974,0.991212912,1374611.868,1537498521,37.87157977,-122.2584462
77,-0.158218384,0.025033057,-0.509429932,0.259518856,-0.839096069,0.704082213,0.994300823,1374611.928,1537498521,37.87157977,-122.2584462
78,-0.160202026,0.025664689,-0.5050354,0.255060755,-0.84072876,0.706824848,0.99375565,1374611.988,1537498521,37.87157977,-122.2584462
79,-0.148544312,0.022065413,-0.506225586,0.256264344,-0.837844849,0.701983991,0.990107947,1374612.047,1537498521,37.87157977,-122.2584462
80,-0.120605469,0.014545679,-0.486755371,0.236930791,-0.861633301,0.742411945,0.996939525,1374612.107,1537498521,37.87157977,-122.2584462
81,-0.116928101,0.013672181,-0.483078003,0.233364357,-0.844772339,0.713640305,0.980141236,1374612.167,1537498521,37.87157977,-122.2584462
82,-0.135009766,0.018227637,-0.50189209,0.25189567,-0.848388672,0.719763339,0.994930473,1374612.226,1537498521,37.87157977,-122.2584462
83,-0.120315552,0.014475832,-0.516906738,0.267192576,-0.836700439,0.700067625,0.990825934,1374612.286,1537498521,37.87157977,-122.2584462
84,-0.129135132,0.016675882,-0.502227783,0.252232746,-0.856552124,0.733681541,1.001294247,1374612.346,1537498521,37.87157977,-122.2584462
85,-0.121017456,0.014645225,-0.502380371,0.252386037,-0.868484497,0.754265322,1.010592194,1374612.405,1537498521,37.87157977,-122.2584462
86,-0.127319336,0.016210213,-0.506622314,0.256666169,-0.849075317,0.720928894,0.996897826,1374612.465,1537498522,37.87157977,-122.2584462
87,-0.115966797,0.013448298,-0.513366699,0.263545368,-0.832443237,0.692961743,0.984863142,1374612.524,1537498522,37.87157977,-122.2584462
88,-0.116012573,0.013458917,-0.503219604,0.25322997,-0.825576782,0.681577023,0.973789459,1374612.584,1537498522,37.87157977,-122.2584462
89,-0.126724243,0.016059034,-0.505584717,0.255615906,-0.848861694,0.720566176,0.996113003,1374612.644,1537498522,37.87157977,-122.2584462
90,-0.129104614,0.016668001,-0.510101318,0.260203355,-0.852554321,0.72684887,1.001858386,1374612.703,1537498522,37.87157977,-122.2584462
91,-0.135513306,0.018363856,-0.504318237,0.254336884,-0.848953247,0.720721616,0.996705752,1374612.763,1537498522,37.87157977,-122.2584462
92,-0.167007446,0.027891487,-0.521835327,0.272312109,-0.827194214,0.684250268,0.992196484,1374612.823,1537498522,37.87157977,-122.2584462
93,-0.1796875,0.032287598,-0.519058228,0.269421444,-0.848114014,0.719297381,1.010448624,1374612.882,1537498522,37.87157977,-122.2584462
94,-0.216644287,0.046934747,-0.564743042,0.318934703,-0.663879395,0.440735851,0.898112076,1374612.942,1537498522,37.87157977,-122.2584462
95,-0.24571228,0.060374525,-0.515136719,0.265365839,-0.894577026,0.800268055,1.061135439,1374613.002,1537498522,37.87157977,-122.2584462
96,-0.291229248,0.084814475,-0.573974609,0.329446852,-0.84715271,0.717667714,1.063921539,1374613.061,1537498522,37.87157977,-122.2584462
97,-0.188766479,0.035632784,-0.56312561,0.317110453,-0.821762085,0.675292924,1.013921181,1374613.121,1537498522,37.87157977,-122.2584462
98,-0.086242676,0.007437799,-0.54548645,0.297555467,-0.761474609,0.57984358,0.940657667,1374613.18,1537498522,37.87157977,-122.2584462
99,-0.03894043,0.001516357,-0.523849487,0.274418285,-0.719863892,0.518204023,0.891144581,1374613.24,1537498522,37.87157977,-122.2584462
100,-0.053314209,0.002842405,-0.558364868,0.311771326,-0.777618408,0.604690388,0.958803483,1374613.3,1537498522,37.87157977,-122.2584462
101,-0.028610229,0.000818545,-0.486434937,0.236618948,-0.815795898,0.665522947,0.950242306,1374613.359,1537498522,37.87157977,-122.2584462
102,-0.075195313,0.005654335,-0.494598389,0.244627566,-0.869918823,0.756758759,1.003514155,1374613.419,1537498522,37.87157977,-122.2584462
103,-0.042037964,0.00176719,-0.495391846,0.245413081,-0.885620117,0.784322992,1.015629491,1374613.479,1537498523,37.87157977,-122.2584462
104,-0.038970947,0.001518735,-0.556915283,0.310154632,-0.856460571,0.73352471,1.022349293,1374613.538,1537498523,37.87157977,-122.2584462
105,0.053405762,0.002852175,-0.594604492,0.353554502,-0.822189331,0.675995296,1.016071835,1374613.598,1537498523,37.87157977,-122.2584462
106,0.049118042,0.002412582,-0.625167847,0.390834837,-0.784912109,0.616087019,1.004656378,1374613.658,1537498523,37.87157977,-122.2584462
107,0.09727478,0.009462383,-0.668136597,0.446406512,-0.732040405,0.535883155,0.995867486,1374613.717,1537498523,37.87157977,-122.2584462
108,0.16305542,0.02658707,-0.702285767,0.493205299,-0.713882446,0.509628147,1.014603625,1374613.777,1537498523,37.87157977,-122.2584462
109,0.228927612,0.052407852,-0.719436646,0.517589088,-0.69732666,0.486264471,1.027745791,1374613.836,1537498523,37.87157977,-122.2584462
110,0.182540894,0.033321178,-0.731399536,0.534945281,-0.613250732,0.37607646,0.97177308,1374613.896,1537498523,37.87157977,-122.2584462
111,0.228942871,0.052414838,-0.725585938,0.526474953,-0.670776367,0.449940935,1.014312933,1374613.956,1537498523,37.87157977,-122.2584462
112,0.161911011,0.026215175,-0.709899902,0.503957871,-0.641601563,0.411652566,0.970477002,1374614.015,1537498523,37.87157977,-122.2584462
113,0.173217773,0.030004397,-0.672210693,0.451867216,-0.71887207,0.516777053,0.999324104,1374614.075,1537498523,37.87157977,-122.2584462
114,0.175308228,0.030732975,-0.63331604,0.401089207,-0.753585815,0.567891581,0.999856871,1374614.135,1537498523,37.87157977,-122.2584462
115,0.126052856,0.015889323,-0.608459473,0.37022293,-0.798812866,0.638101995,1.012034707,1374614.194,1537498523,37.87157977,-122.2584462
116,0.144515991,0.020884872,-0.528717041,0.279541709,-0.874328613,0.764450524,1.031928827,1374614.254,1537498523,37.87157977,-122.2584462
117,0.064849854,0.004205504,-0.551742554,0.304419846,-0.788070679,0.621055395,0.964199536,1374614.314,1537498523,37.87157977,-122.2584462
118,0.056686401,0.003213348,-0.547027588,0.299239182,-0.805831909,0.649365066,0.975611396,1374614.373,1537498523,37.87157977,-122.2584462
119,0.051101685,0.002611382,-0.513641357,0.263827444,-0.814086914,0.662737504,0.963937928,1374614.433,1537498524,37.87157977,-122.2584462
120,0.040283203,0.001622736,-0.503311157,0.253322121,-0.834671021,0.696675713,0.975510415,1374614.492,1537498524,37.87157977,-122.2584462
121,0.008926392,7.97E-05,-0.459075928,0.210750708,-0.86416626,0.746783325,0.978577392,1374614.552,1537498524,37.87157977,-122.2584462
122,0.015533447,0.000241288,-0.444610596,0.197678582,-0.879852295,0.774140061,0.985930997,1374614.612,1537498524,37.87157977,-122.2584462
123,0.015335083,0.000235165,-0.417129517,0.173997034,-0.914306641,0.835956634,1.005081505,1374614.671,1537498524,37.87157977,-122.2584462
124,0.008666992,7.51E-05,-0.390457153,0.152456788,-0.935134888,0.874477259,1.013414606,1374614.731,1537498524,37.87157977,-122.2584462
125,0.015472412,0.000239396,-0.391036987,0.152909925,-0.926605225,0.858597243,1.005856135,1374614.791,1537498524,37.87157977,-122.2584462
126,0.001281738,1.64E-06,-0.401947021,0.161561408,-0.917709351,0.842190453,1.001874994,1374614.85,1537498524,37.87157977,-122.2584462
127,0.004806519,2.31E-05,-0.402618408,0.162101582,-0.910110474,0.828301075,0.995201367,1374614.91,1537498524,37.87157977,-122.2584462
128,0.003295898,1.09E-05,-0.394210815,0.155402167,-0.905563354,0.820044988,0.987652782,1374614.97,1537498524,37.87157977,-122.2584462
129,0.004119873,1.70E-05,-0.398117065,0.158497197,-0.911575317,0.830969559,0.994727968,1374615.029,1537498524,37.87157977,-122.2584462
130,0.008666992,7.51E-05,-0.399368286,0.159495028,-0.913299561,0.834116088,0.996838118,1374615.089,1537498524,37.87157977,-122.2584462
131,0.002655029,7.05E-06,-0.393569946,0.154897302,-0.912490845,0.832639542,0.993752431,1374615.148,1537498524,37.87157977,-122.2584462
132,-0.003082275,9.50E-06,-0.400772095,0.160618272,-0.914611816,0.836514774,0.998570251,1374615.208,1537498524,37.87157977,-122.2584462
133,0.007629395,5.82E-05,-0.398300171,0.158643026,-0.89704895,0.804696819,0.981528427,1374615.268,1537498524,37.87157977,-122.2584462
134,-0.001846313,3.41E-06,-0.400131226,0.160104998,-0.909454346,0.827107207,0.993587245,1374615.327,1537498524,37.87157977,-122.2584462
135,-0.003387451,1.15E-05,-0.395187378,0.156173064,-0.916641235,0.840231154,0.998206237,1374615.387,1537498524,37.87157977,-122.2584462
136,-0.001159668,1.34E-06,-0.395385742,0.156329885,-0.918334961,0.843339101,0.999835152,1374615.447,1537498524,37.87157977,-122.2584462
137,0.005264282,2.77E-05,-0.398254395,0.158606563,-0.910461426,0.828940008,0.993767721,1374615.506,1537498525,37.87157977,-122.2584462
138,-0.007141113,5.10E-05,-0.400772095,0.160618272,-0.914993286,0.837212713,0.998940429,1374615.566,1537498525,37.87157977,-122.2584462
139,-0.005813599,3.38E-05,-0.407043457,0.165684376,-0.928924561,0.86290084,1.014208565,1374615.626,1537498525,37.87157977,-122.2584462
140,-0.019805908,0.000392274,-0.422561646,0.178558345,-0.903686523,0.816649332,0.99779755,1374615.685,1537498525,37.87157977,-122.2584462
141,-0.043777466,0.001916467,-0.424468994,0.180173927,-0.88319397,0.780031589,0.980878169,1374615.745,1537498525,37.87157977,-122.2584462
142,-0.049560547,0.002456248,-0.423309326,0.179190785,-0.864715576,0.747733027,0.964043599,1374615.804,1537498525,37.87157977,-122.2584462
143,-0.03956604,0.001565472,-0.416946411,0.17384431,-0.876495361,0.768244118,0.971418498,1374615.864,1537498525,37.87157977,-122.2584462
144,-0.030548096,0.000933186,-0.415908813,0.172980141,-0.899765015,0.809577082,0.99171085,1374615.924,1537498525,37.87157977,-122.2584462
145,-0.022171021,0.000491554,-0.417785645,0.174544845,-0.901245117,0.812242761,0.993619223,1374615.983,1537498525,37.87157977,-122.2584462
146,-0.02456665,0.00060352,-0.417953491,0.174685121,-0.911712646,0.831219949,1.003249017,1374616.043,1537498525,37.87157977,-122.2584462
147,-0.023620605,0.000557933,-0.410797119,0.168754273,-0.919265747,0.845049514,1.007155261,1374616.103,1537498525,37.87157977,-122.2584462
148,-0.04498291,0.002023462,-0.400939941,0.160752836,-0.928878784,0.862815795,1.012715209,1374616.162,1537498525,37.87157977,-122.2584462
149,-0.051864624,0.002689939,-0.408599854,0.166953841,-0.898834229,0.807902971,0.988709639,1374616.222,1537498525,37.87157977,-122.2584462
150,-0.043380737,0.001881888,-0.404495239,0.163616398,-0.896728516,0.804122031,0.984693007,1374616.282,1537498525,37.87157977,-122.2584462
151,-0.028747559,0.000826422,-0.403839111,0.163086028,-0.898269653,0.80688837,0.985292251,1374616.341,1537498525,37.87157977,-122.2584462
152,-0.034698486,0.001203985,-0.393783569,0.155065499,-0.911468506,0.830774837,0.993501043,1374616.401,1537498525,37.87157977,-122.2584462
153,-0.051269531,0.002628565,-0.401321411,0.161058875,-0.902389526,0.814306857,0.988935941,1374616.46,1537498526,37.87157977,-122.2584462
154,-0.041183472,0.001696078,-0.404785156,0.163851023,-0.922225952,0.850500707,1.007991968,1374616.52,1537498526,37.87157977,-122.2584462
155,-0.051605225,0.002663099,-0.408798218,0.167115983,-0.913299561,0.834116088,1.001945692,1374616.58,1537498526,37.87157977,-122.2584462
156,-0.056564331,0.003199524,-0.407150269,0.165771342,-0.908340454,0.82508238,0.997022189,1374616.639,1537498526,37.87157977,-122.2584462
157,-0.05859375,0.003433228,-0.401916504,0.161536876,-0.901992798,0.813591008,0.989222478,1374616.699,1537498526,37.87157977,-122.2584462
158,-0.065536499,0.004295033,-0.41456604,0.171865002,-0.889770508,0.791691557,0.983794486,1374616.759,1537498526,37.87157977,-122.2584462
159,-0.086761475,0.007527554,-0.414199829,0.171561498,-0.895095825,0.801196536,0.990093727,1374616.818,1537498526,37.87157977,-122.2584462
160,-0.068740845,0.004725304,-0.416992188,0.173882485,-0.87739563,0.769823092,0.97387416,1374616.878,1537498526,37.87157977,-122.2584462
161,-0.057052612,0.003255001,-0.403396606,0.162728822,-0.917556763,0.841910413,1.003939359,1374616.938,1537498526,37.87157977,-122.2584462
162,-0.058074951,0.0033727,-0.415649414,0.172764435,-0.93081665,0.866419636,1.021056693,1374616.997,1537498526,37.87157977,-122.2584462
163,-0.055725098,0.003105287,-0.416015625,0.173069,-0.924850464,0.855348381,1.015639044,1374617.057,1537498526,37.87157977,-122.2584462
164,-0.049102783,0.002411083,-0.413330078,0.170841753,-0.914840698,0.836933503,1.005080265,1374617.117,1537498526,37.87157977,-122.2584462
165,-0.045303345,0.002052393,-0.402496338,0.162003302,-0.916976929,0.840846688,1.002448195,1374617.176,1537498526,37.87157977,-122.2584462
166,-0.043151855,0.001862083,-0.393356323,0.154729197,-0.906906128,0.822478725,0.989479663,1374617.236,1537498526,37.87157977,-122.2584462
167,-0.054443359,0.002964079,-0.39982605,0.15986087,-0.896514893,0.803738953,0.983139819,1374617.295,1537498526,37.87157977,-122.2584462
168,-0.066650391,0.004442275,-0.396713257,0.157381408,-0.902816772,0.815078124,0.988383431,1374617.355,1537498526,37.87157977,-122.2584462
169,-0.078781128,0.006206466,-0.404830933,0.163888084,-0.897903442,0.806230591,0.988091667,1374617.415,1537498526,37.87157977,-122.2584462
170,-0.071075439,0.005051718,-0.410736084,0.168704131,-0.874404907,0.764583941,0.968679405,1374617.474,1537498527,37.87157977,-122.2584462
171,-0.073852539,0.005454198,-0.417892456,0.174634105,-0.889953613,0.792017433,0.985954226,1374617.534,1537498527,37.87157977,-122.2584462
172,-0.079208374,0.006273967,-0.418457031,0.175106287,-0.906845093,0.822368023,1.001872385,1374617.594,1537498527,37.87157977,-122.2584462
173,-0.061218262,0.003747676,-0.422058105,0.178133044,-0.898269653,0.80688837,0.994368689,1374617.653,1537498527,37.87157977,-122.2584462
174,-0.065429688,0.004281044,-0.407028198,0.165671954,-0.914993286,0.837212713,1.00357646,1374617.713,1537498527,37.87157977,-122.2584462
175,-0.062896729,0.003955999,-0.405838013,0.164704493,-0.902938843,0.815298554,0.991947098,1374617.773,1537498527,37.87157977,-122.2584462
176,-0.064682007,0.004183762,-0.396331787,0.157078885,-0.912353516,0.832388938,0.996820739,1374617.832,1537498527,37.87157977,-122.2584462
177,-0.066574097,0.00443211,-0.411209106,0.169092929,-0.857254028,0.734884469,0.953105192,1374617.892,1537498527,37.87157977,-122.2584462
178,-0.048477173,0.002350036,-0.403091431,0.162482702,-0.919036865,0.844628759,1.004719611,1374617.951,1537498527,37.87157977,-122.2584462
179,-0.061203003,0.003745808,-0.397445679,0.157963068,-0.91847229,0.843591347,1.002646609,1374618.011,1537498527,37.87157977,-122.2584462
180,-0.039901733,0.001592148,-0.382919312,0.1466272,-0.922088623,0.850247429,0.999233094,1374618.071,1537498527,37.87157977,-122.2584462
181,-0.057510376,0.003307443,-0.40007019,0.160056157,-0.909378052,0.826968441,0.99515428,1374618.13,1537498527,37.87157977,-122.2584462
182,-0.074172974,0.00550163,-0.41569519,0.172802491,-0.899078369,0.808341914,0.993300576,1374618.19,1537498527,37.87157977,-122.2584462
183,-0.048202515,0.002323482,-0.398864746,0.159093086,-0.888183594,0.788870097,0.974826479,1374618.25,1537498527,37.87157977,-122.2584462
184,-0.033370972,0.001113622,-0.379501343,0.144021269,-0.972442627,0.945644663,1.044403923,1374618.309,1537498527,37.87157977,-122.2584462
185,-0.057159424,0.0032672,-0.373535156,0.139528513,-0.961242676,0.923987482,1.032851971,1374618.369,1537498527,37.87157977,-122.2584462
186,-0.053756714,0.002889784,-0.400421143,0.160337092,-0.895080566,0.80116922,0.982036708,1374618.429,1537498527,37.87157977,-122.2584462
187,0.005722046,3.27E-05,-0.34513855,0.119120619,-0.947372437,0.897514534,1.008299507,1374618.488,1537498528,37.87157977,-122.2584462
188,0.035705566,0.001274887,-0.334274292,0.111739302,-0.933441162,0.871312403,0.992132346,1374618.548,1537498528,37.87157977,-122.2584462
189,0.012145996,0.000147525,-0.415710449,0.172815177,-0.848297119,0.719608002,0.944759602,1374618.608,1537498528,37.87157977,-122.2584462
190,-0.006973267,4.86E-05,-0.477722168,0.22821847,-0.875488281,0.76647973,0.997369955,1374618.667,1537498528,37.87157977,-122.2584462
191,-0.013671875,0.00018692,-0.432540894,0.187091625,-0.889343262,0.790931438,0.989044985,1374618.727,1537498528,37.87157977,-122.2584462
192,0.10760498,0.011578832,-0.446121216,0.199024139,-0.792175293,0.627541695,0.915502412,1374618.786,1537498528,37.87157977,-122.2584462
193,0.143737793,0.020660553,-0.444869995,0.197909312,-0.891479492,0.794735685,1.006630791,1374618.846,1537498528,37.87157977,-122.2584462
194,0.098190308,0.009641337,-0.413742065,0.171182496,-1.019195557,1.038759583,1.104347507,1374618.906,1537498528,37.87157977,-122.2584462
195,0.101837158,0.010370807,-0.400726318,0.160581582,-0.934951782,0.874134835,1.022295076,1374618.965,1537498528,37.87157977,-122.2584462
196,0.124984741,0.015621185,-0.400634766,0.160508216,-0.893203735,0.797812912,0.986885157,1374619.025,1537498528,37.87157977,-122.2584462
197,0.063110352,0.003982917,-0.408691406,0.167028665,-0.930404663,0.865652837,1.018167186,1374619.085,1537498528,37.87157977,-122.2584462
198,-0.032424927,0.001051376,-0.367767334,0.135252812,-0.960540771,0.922638573,1.029049445,1374619.144,1537498528,37.87157977,-122.2584462
199,0.050231934,0.002523247,-0.415115356,0.172320759,-0.819839478,0.67213677,0.920315585,1374619.204,1537498528,37.87157977,-122.2584462
200,0.096008301,0.009217594,-0.441329956,0.19477213,-0.819671631,0.671861583,0.935869279,1374619.264,1537498528,37.87157977,-122.2584462
201,0.138153076,0.019086272,-0.442642212,0.195932128,-0.86869812,0.754636424,0.984710528,1374619.323,1537498528,37.87157977,-122.2584462
202,0.162216187,0.026314091,-0.399627686,0.159702287,-0.917526245,0.84185441,1.013839627,1374619.383,1537498528,37.87157977,-122.2584462
203,0.122940063,0.015114259,-0.305206299,0.093150885,-1.02545166,1.051551107,1.076947655,1374619.443,1537498528,37.87157977,-122.2584462
204,0.082183838,0.006754183,-0.30178833,0.091076196,-0.957214355,0.916259321,1.007020209,1374619.502,1537498528,37.87157977,-122.2584462
205,0.112228394,0.012595212,-0.331970215,0.110204224,-0.859390259,0.738551617,0.928090003,1374619.562,1537498528,37.87157977,-122.2584462
206,0.111312866,0.012390554,-0.386886597,0.149681239,-0.859985352,0.739574806,0.949550735,1374619.621,1537498528,37.87157977,-122.2584462
207,0.080413818,0.006466382,-0.403686523,0.162962809,-0.917205811,0.8412665,1.005333622,1374619.681,1537498528,37.87157977,-122.2584462
208,0.07383728,0.005451944,-0.397491455,0.157999457,-0.971313477,0.943449871,1.052093756,1374619.741,1537498528,37.87157977,-122.2584462
209,0.11656189,0.013586674,-0.383880615,0.147364327,-0.917007446,0.840902656,1.000926399,1374619.8,1537498528,37.87157977,-122.2584462
210,0.171142578,0.029289782,-0.373199463,0.139277839,-0.873947144,0.763783611,0.965583363,1374619.86,1537498528,37.87157977,-122.2584462
211,0.233261108,0.054410745,-0.375442505,0.140957075,-0.859695435,0.739076241,0.966666468,1374619.92,1537498529,37.87157977,-122.2584462
212,0.21913147,0.048018601,-0.36932373,0.136400018,-0.940368652,0.884293202,1.033785191,1374619.979,1537498529,37.87157977,-122.2584462
213,0.189071655,0.035748091,-0.352233887,0.124068711,-0.983215332,0.966712389,1.061380795,1374620.039,1537498529,37.87157977,-122.2584462
214,0.192443848,0.037034635,-0.345199585,0.119162753,-0.908676147,0.82569234,0.990903491,1374620.099,1537498529,37.87157977,-122.2584462
215,0.202392578,0.040962756,-0.350997925,0.123199543,-0.859939575,0.739496073,0.950609474,1374620.158,1537498529,37.87157977,-122.2584462
216,0.196899414,0.038769379,-0.349411011,0.122088055,-0.927337646,0.85995511,1.010352683,1374620.218,1537498529,37.87157977,-122.2584462
217,0.166488647,0.02771847,-0.36390686,0.132428203,-0.904296875,0.817752838,0.988888017,1374620.277,1537498529,37.87157977,-122.2584462
218,0.216995239,0.047086934,-0.38180542,0.145775379,-0.904647827,0.818387691,1.00560927,1374620.337,1537498529,37.87157977,-122.2584462
219,0.199234009,0.03969419,-0.341293335,0.116481141,-0.954940796,0.911911924,1.033483069,1374620.397,1537498530,37.87157977,-122.2584462
220,0.12046814,0.014512573,-0.339309692,0.115131067,-0.944824219,0.892692805,1.011106545,1374620.456,1537498530,37.87157977,-122.2584462
221,0.144226074,0.02080116,-0.355484009,0.126368881,-0.847702026,0.718598725,0.930466961,1374620.516,1537498530,37.87157977,-122.2584462
222,0.183609009,0.033712268,-0.342544556,0.117336773,-0.875717163,0.76688055,0.958086421,1374620.576,1537498530,37.87157977,-122.2584462
223,0.227310181,0.051669918,-0.342819214,0.117525013,-0.919570923,0.845610682,1.007375607,1374620.635,1537498530,37.87157977,-122.2584462
224,0.192611694,0.037099265,-0.336151123,0.112997577,-0.989837646,0.979778565,1.062955976,1374620.695,1537498530,37.87157977,-122.2584462
225,0.148391724,0.022020104,-0.35194397,0.123864558,-0.966674805,0.934460179,1.039396383,1374620.755,1537498530,37.87157977,-122.2584462
226,0.139297485,0.019403789,-0.340316772,0.115815505,-0.947952271,0.898613508,1.016775689,1374620.814,1537498530,37.87157977,-122.2584462
227,0.135192871,0.018277112,-0.344238281,0.118499994,-0.878967285,0.772583488,0.953604003,1374620.874,1537498530,37.87157977,-122.2584462
228,0.154174805,0.02376987,-0.328338623,0.107806251,-0.913253784,0.834032474,0.982653854,1374620.934,1537498530,37.87157977,-122.2584462
229,0.162994385,0.02656717,-0.336578369,0.113284998,-0.90562439,0.820155536,0.979799828,1374620.993,1537498530,37.87157977,-122.2584462
230,0.162384033,0.026368574,-0.344268799,0.118521006,-0.914489746,0.836291496,0.990545847,1374621.053,1537498530,37.87157977,-122.2584462
231,0.164489746,0.027056877,-0.372039795,0.138413609,-0.892318726,0.796232709,0.98066467,1374621.112,1537498530,37.87157977,-122.2584462
232,0.172637939,0.029803858,-0.353744507,0.125135176,-0.914215088,0.835789227,0.995353335,1374621.172,1537498530,37.87157977,-122.2584462
233,0.199676514,0.03987071,-0.35144043,0.123510376,-0.946060181,0.895029866,1.028791015,1374621.232,1537498530,37.87157977,-122.2584462
234,0.17427063,0.030370252,-0.308670044,0.095277196,-0.971420288,0.943657376,1.034071963,1374621.291,1537498530,37.87157977,-122.2584462
235,0.150421143,0.02262652,-0.349197388,0.121938816,-0.949920654,0.902349249,1.023188441,1374621.351,1537498530,37.87157977,-122.2584462
236,0.135314941,0.018310133,-0.347793579,0.120960374,-0.909667969,0.827495814,0.983242758,1374621.411,1537498530,37.87157977,-122.2584462
237,0.147399902,0.021726731,-0.385375977,0.148514644,-0.859985352,0.739574806,0.953842849,1374621.47,1537498530,37.87157977,-122.2584462
238,0.1040802,0.010832688,-0.371444702,0.137971167,-0.923675537,0.853176498,1.000989686,1374621.53,1537498530,37.87157977,-122.2584462
239,0.18913269,0.035771174,-0.387741089,0.150343152,-0.892333984,0.796259939,0.991147953,1374621.59,1537498530,37.87157977,-122.2584462
240,0.211242676,0.044623468,-0.352813721,0.124477522,-0.889038086,0.790388718,0.979535455,1374621.649,1537498530,37.87157977,-122.2584462
241,0.238983154,0.057112948,-0.367614746,0.135140601,-0.868682861,0.754609913,0.973069094,1374621.709,1537498530,37.87157977,-122.2584462
242,0.200805664,0.040322915,-0.351104736,0.123274536,-0.954681396,0.911416568,1.036828828,1374621.769,1537498530,37.87157977,-122.2584462
243,0.154922485,0.024000976,-0.343612671,0.118069668,-0.968460083,0.937914932,1.039223545,1374621.828,1537498530,37.87157977,-122.2584462
244,0.183929443,0.03383004,-0.364562988,0.132906172,-0.871459961,0.759442464,0.962381772,1374621.888,1537498530,37.87157977,-122.2584462
245,0.218109131,0.047571593,-0.375610352,0.141083137,-0.852828979,0.727317267,0.95706426,1374621.947,1537498531,37.87157977,-122.2584462
246,0.195449829,0.038200636,-0.382141113,0.14603183,-0.886947632,0.786676102,0.985346928,1374622.007,1537498531,37.87157977,-122.2584462
247,0.211547852,0.044752494,-0.369812012,0.136760924,-0.895217896,0.801415081,0.991427506,1374622.067,1537498531,37.87157977,-122.2584462
248,0.207366943,0.043001049,-0.366455078,0.134289324,-0.923461914,0.852781907,1.014924766,1374622.126,1537498531,37.87157977,-122.2584462
249,0.219512939,0.04818593,-0.390029907,0.152123328,-0.86579895,0.749607822,0.974636897,1374622.186,1537498531,37.87157977,-122.2584462
250,0.224884033,0.050572828,-0.337936401,0.114201011,-0.933502197,0.871426352,1.017939188,1374622.246,1537498531,37.87157977,-122.2584462
251,0.226013184,0.051081959,-0.333114624,0.110965353,-0.956771851,0.915412375,1.038007556,1374622.305,1537498531,37.87157977,-122.2584462
252,0.220718384,0.048716605,-0.346084595,0.119774547,-0.93421936,0.872765813,1.020419994,1374622.365,1537498531,37.87157977,-122.2584462
253,0.166000366,0.027556122,-0.342437744,0.117263609,-0.912033081,0.831804341,0.988242921,1374622.425,1537498531,37.87157977,-122.2584462
254,0.221160889,0.048912139,-0.358932495,0.128832536,-0.865509033,0.749105886,0.962730783,1374622.484,1537498531,37.87157977,-122.2584462
255,0.223907471,0.050134556,-0.319290161,0.101946207,-0.927246094,0.859785319,1.005915544,1374622.544,1537498531,37.87157977,-122.2584462
256,0.229187012,0.052526686,-0.335449219,0.112526179,-0.905471802,0.819879184,0.992437428,1374622.604,1537498531,37.87157977,-122.2584462
257,0.197891235,0.039160941,-0.345352173,0.119268123,-0.935256958,0.874705577,1.01643231,1374622.663,1537498531,37.87157977,-122.2584462
258,0.200439453,0.040175974,-0.380905151,0.145088734,-0.872467041,0.761198738,0.972863529,1374622.723,1537498531,37.87157977,-122.2584462
259,0.229873657,0.052841898,-0.363021851,0.131784864,-0.930480957,0.865794811,1.024900763,1374622.782,1537498531,37.87157977,-122.2584462
260,0.172409058,0.029724883,-0.369735718,0.136704501,-0.944869995,0.892779307,1.029178649,1374622.842,1537498531,37.87157977,-122.2584462
261,0.172988892,0.029925157,-0.383148193,0.146802538,-0.868942261,0.755060653,0.965291846,1374622.902,1537498531,37.87157977,-122.2584462
262,0.179901123,0.032364414,-0.360702515,0.130106304,-0.892837524,0.797158844,0.979606841,1374622.961,1537498531,37.87157977,-122.2584462
263,0.222610474,0.049555423,-0.352462769,0.124230004,-0.866607666,0.751008847,0.961662245,1374623.021,1537498531,37.87157977,-122.2584462
264,0.199035645,0.039615188,-0.356369019,0.126998878,-0.895614624,0.802125555,0.984245711,1374623.081,1537498531,37.87157977,-122.2584462
265,0.180160522,0.032457814,-0.381088257,0.14522826,-0.900238037,0.810428523,0.994039535,1374623.14,1537498531,37.87157977,-122.2584462
266,0.15586853,0.024294999,-0.394638062,0.1557392,-0.900741577,0.811335389,0.995675443,1374623.2,1537498531,37.87157977,-122.2584462
267,0.156616211,0.024528638,-0.373794556,0.13972237,-0.939025879,0.881769601,1.022751489,1374623.26,1537498531,37.87157977,-122.2584462
268,0.167556763,0.028075269,-0.400253296,0.160202701,-0.870513916,0.757794478,0.972662556,1374623.319,1537498531,37.87157977,-122.2584462
269,0.166641235,0.027769301,-0.404052734,0.163258612,-0.909942627,0.827995584,1.009466937,1374623.379,1537498532,37.87157977,-122.2584462
270,0.185836792,0.034535313,-0.390182495,0.152242379,-0.945236206,0.893471485,1.039350363,1374623.438,1537498532,37.87157977,-122.2584462
271,0.227645874,0.051822644,-0.362579346,0.131463782,-0.934783936,0.873821007,1.0281573,1374623.498,1537498533,37.87157977,-122.2584462
272,0.195022583,0.038033808,-0.356872559,0.127358023,-0.943969727,0.891078845,1.027847594,1374623.558,1537498533,37.87157977,-122.2584462
273,0.144897461,0.020995274,-0.379745483,0.144206632,-0.897598267,0.805682649,0.985334743,1374623.617,1537498533,37.87157977,-122.2584462
274,0.146133423,0.021354977,-0.336700439,0.113367186,-0.936889648,0.877762213,1.006222826,1374623.677,1537498533,37.87157977,-122.2584462
275,0.171676636,0.029472867,-0.3515625,0.123596191,-0.859359741,0.738499164,0.944228904,1374623.737,1537498533,37.87157977,-122.2584462
276,0.172698975,0.029824936,-0.375320435,0.140865429,-0.878067017,0.771001686,0.970408188,1374623.796,1537498533,37.87157977,-122.2584462
277,0.141143799,0.019921572,-0.385574341,0.148667572,-0.899597168,0.809275065,0.988870168,1374623.856,1537498533,37.87157977,-122.2584462
278,0.098114014,0.00962636,-0.364685059,0.132995192,-0.946044922,0.895000994,1.018637593,1374623.916,1537498533,37.87157977,-122.2584462
279,0.139602661,0.019488903,-0.398132324,0.158509347,-0.866653442,0.751088189,0.9638913,1374623.975,1537498533,37.87157977,-122.2584462
280,0.165771484,0.027480185,-0.422637939,0.178622827,-0.860702515,0.740808819,0.973093948,1374624.035,1537498533,37.87157977,-122.2584462
281,0.103469849,0.01070601,-0.432388306,0.186959647,-0.918441772,0.843535289,1.020392545,1374624.095,1537498533,37.87157977,-122.2584462
282,0.111251831,0.01237697,-0.431900024,0.186537631,-0.893188477,0.797785655,0.998348765,1374624.154,1537498533,37.87157977,-122.2584462
283,0.131408691,0.017268244,-0.42527771,0.180861131,-0.860046387,0.739679788,0.968405474,1374624.214,1537498533,37.87157977,-122.2584462
284,0.173355103,0.030051992,-0.432495117,0.187052026,-0.86289978,0.74459603,0.980663066,1374624.273,1537498533,37.87157977,-122.2584462
285,0.149291992,0.022288099,-0.390396118,0.152409129,-0.927200317,0.859700428,1.017053418,1374624.333,1537498533,37.87157977,-122.2584462
286,0.177078247,0.031356706,-0.396179199,0.156957958,-0.898849487,0.8079304,0.998120766,1374624.393,1537498533,37.87157977,-122.2584462
287,0.232559204,0.054083783,-0.415283203,0.172460139,-0.882415771,0.778657593,1.002597384,1374624.452,1537498534,37.87157977,-122.2584462
288,0.198928833,0.039572681,-0.447662354,0.200401583,-0.890151978,0.792370544,1.016043704,1374624.512,1537498534,37.87157977,-122.2584462
289,0.182815552,0.033421526,-0.4765625,0.227111816,-0.849624634,0.721862019,0.991158595,1374624.572,1537498534,37.87157977,-122.2584462
290,0.143920898,0.020713225,-0.467651367,0.218697801,-0.867904663,0.753258504,0.996328023,1374624.631,1537498534,37.87157977,-122.2584462
291,0.159500122,0.025440289,-0.417373657,0.17420077,-0.871841431,0.760107481,0.979667566,1374624.691,1537498534,37.87157977,-122.2584462
292,0.141403198,0.019994864,-0.407791138,0.166293612,-0.915008545,0.837240637,1.011696157,1374624.751,1537498534,37.87157977,-122.2584462
293,0.195831299,0.038349898,-0.303527832,0.092129145,-0.936553955,0.877133311,1.00379896,1374624.81,1537498534,37.87157977,-122.2584462
294,0.139007568,0.019323104,-0.313949585,0.098564342,-0.97328186,0.947277579,1.032068324,1374624.87,1537498534,37.87157977,-122.2584462
295,0.20223999,0.040901014,-0.326965332,0.106906328,-0.853607178,0.728645214,0.936190449,1374624.93,1537498534,37.87157977,-122.2584462
296,0.199584961,0.039834157,-0.344680786,0.118804844,-0.840240479,0.706004063,0.929861852,1374624.989,1537498534,37.87157977,-122.2584462
297,0.196228027,0.038505439,-0.438919067,0.192649947,-0.819534302,0.671636472,0.950153597,1374625.049,1537498534,37.87157977,-122.2584462
298,0.124206543,0.015427265,-0.39604187,0.156849163,-0.926513672,0.858427584,1.015235939,1374625.108,1537498534,37.87157977,-122.2584462
299,0.176361084,0.031103232,-0.390213013,0.152266196,-0.908203125,0.824832916,1.004092796,1374625.168,1537498534,37.87157977,-122.2584462
300,0.226333618,0.051226907,-0.462387085,0.213801816,-0.825531006,0.681501442,0.972897818,1374625.228,1537498534,37.87157977,-122.2584462
301,0.212081909,0.044978736,-0.433898926,0.188268278,-0.858444214,0.736926469,0.984973849,1374625.287,1537498534,37.87157977,-122.2584462
302,0.250732422,0.062866747,-0.417068481,0.173946118,-0.980453491,0.961289048,1.094578418,1374625.347,1537498534,37.87157977,-122.2584462
303,0.157989502,0.024960683,-0.472381592,0.223144368,-0.915283203,0.837743342,1.042040495,1374625.407,1537498534,37.87157977,-122.2584462
304,0.198135376,0.039257627,-0.479248047,0.229678691,-0.857070923,0.734570567,1.001751908,1374625.466,1537498535,37.87157977,-122.2584462
305,0.111083984,0.012339652,-0.436859131,0.1908459,-0.856567383,0.733707682,0.967932453,1374625.526,1537498535,37.87157977,-122.2584462
306,0.173095703,0.029962122,-0.395553589,0.156462642,-0.853485107,0.728436828,0.956483974,1374625.586,1537498535,37.87157977,-122.2584462
307,0.191558838,0.036694788,-0.399200439,0.15936099,-0.894454956,0.800049668,0.998050824,1374625.645,1537498535,37.87157977,-122.2584462
308,0.158615112,0.025158754,-0.429244995,0.184251266,-0.893539429,0.798412711,1.003903746,1374625.705,1537498535,37.87157977,-122.2584462
309,0.164596558,0.027092027,-0.447631836,0.200374261,-0.900054932,0.810098881,1.018609429,1374625.764,1537498535,37.87157977,-122.2584462
310,0.164703369,0.0271272,-0.41569519,0.172802491,-0.931381226,0.867470988,1.03315085,1374625.824,1537498535,37.87157977,-122.2584462
311,0.17098999,0.029237577,-0.40397644,0.163196964,-0.889404297,0.791040004,0.991702851,1374625.884,1537498535,37.87157977,-122.2584462
312,0.171066284,0.029263674,-0.403518677,0.162827323,-0.895294189,0.801551685,0.996816272,1374625.943,1537498535,37.87157977,-122.2584462
313,0.157318115,0.024748989,-0.425827026,0.181328656,-0.898178101,0.806723901,1.006380418,1374626.003,1537498535,37.87157977,-122.2584462
314,0.145217896,0.021088237,-0.417098999,0.173971575,-0.92175293,0.849628464,1.022099935,1374626.063,1537498535,37.87157977,-122.2584462
315,0.059326172,0.003519595,-0.421340942,0.177528189,-0.940048218,0.883690652,1.031861636,1374626.122,1537498535,37.87157977,-122.2584462
316,0.07270813,0.005286472,-0.42880249,0.183871575,-0.870285034,0.75739604,0.972910113,1374626.182,1537498535,37.87157977,-122.2584462
317,0.082138062,0.006746661,-0.41557312,0.172701018,-0.862960815,0.744701368,0.961326712,1374626.242,1537498535,37.87157977,-122.2584462
318,0.137924194,0.019023083,-0.435806274,0.189927108,-0.86807251,0.753549883,0.981070881,1374626.301,1537498535,37.87157977,-122.2584462
319,0.159042358,0.025294472,-0.425476074,0.18102989,-0.893951416,0.799149134,1.002733013,1374626.361,1537498535,37.87157977,-122.2584462
320,0.139678955,0.01951021,-0.415161133,0.172358766,-0.919418335,0.845330075,1.018429699,1374626.421,1537498535,37.87157977,-122.2584462
321,0.093811035,0.00880051,-0.421096802,0.177322517,-0.889801025,0.791745864,0.988872535,1374626.48,1537498535,37.87157977,-122.2584462
322,0.079345703,0.006295741,-0.443649292,0.196824694,-0.881439209,0.776935079,0.989977532,1374626.54,1537498535,37.87157977,-122.2584462
323,0.032485962,0.001055338,-0.456634521,0.208515086,-0.875320435,0.766185864,0.98780377,1374626.599,1537498535,37.87157977,-122.2584462
324,0.044021606,0.001937902,-0.44430542,0.197407306,-0.858917236,0.737738818,0.968031005,1374626.659,1537498535,37.87157977,-122.2584462
325,0.029174805,0.000851169,-0.436050415,0.190139964,-0.861984253,0.743016852,0.966440886,1374626.719,1537498535,37.87157977,-122.2584462
326,0.033432007,0.001117699,-0.428375244,0.18350535,-0.886779785,0.786378387,0.985394051,1374626.778,1537498535,37.87157977,-122.2584462
327,0.021789551,0.000474785,-0.448760986,0.201386423,-0.887634277,0.78789461,0.994864723,1374626.838,1537498535,37.87157977,-122.2584462
328,0.057449341,0.003300427,-0.490631104,0.24071888,-0.860717773,0.740835085,0.992398303,1374626.898,1537498536,37.87157977,-122.2584462
329,0.059875488,0.003585074,-0.472137451,0.222913773,-0.917358398,0.84154643,1.03346276,1374626.957,1537498536,37.87157977,-122.2584462
330,0.071212769,0.005071258,-0.438537598,0.192315225,-0.945327759,0.893644572,1.04452432,1374627.017,1537498536,37.87157977,-122.2584462
331,0.099273682,0.009855264,-0.439483643,0.193145872,-0.967788696,0.93661496,1.067528031,1374627.077,1537498536,37.87157977,-122.2584462
332,0.074493408,0.005549268,-0.436355591,0.190406202,-0.959014893,0.919709565,1.05625046,1374627.136,1537498536,37.87157977,-122.2584462
333,0.166046143,0.027571322,-0.468093872,0.219111873,-0.925079346,0.855771796,1.049978567,1374627.196,1537498536,37.87157977,-122.2584462
334,-0.098953247,0.009791745,-0.439254761,0.192944745,-0.668075562,0.446324957,0.805643499,1374627.256,1537498536,37.87157977,-122.2584462
335,-0.008956909,8.02E-05,-0.275665283,0.075991348,-1.210861206,1.46618486,1.241876175,1374627.315,1537498536,37.87157977,-122.2584462
336,0.534378052,0.285559902,-0.97277832,0.94629766,-0.733444214,0.537940415,1.330337543,1374627.375,1537498536,37.87157977,-122.2584462
337,0.031219482,0.000974656,-0.682998657,0.466487165,-0.614440918,0.377537642,0.919238524,1374627.434,1537498536,37.87157977,-122.2584462
338,-0.235183716,0.05531138,-0.99848938,0.996981042,-0.552780151,0.305565895,1.165271778,1374627.494,1537498536,37.87157977,-122.2584462
339,-0.174423218,0.030423459,-0.801376343,0.642204043,-0.779098511,0.60699449,1.13120378,1374627.554,1537498536,37.87157977,-122.2584462
340,-0.242355347,0.058736114,-0.598129272,0.357758626,-0.674728394,0.455258406,0.933677217,1374627.613,1537498537,37.87157977,-122.2584462
341,-0.185150146,0.034280577,-0.583862305,0.340895191,-0.437896729,0.191753545,0.752947085,1374627.673,1537498537,37.87157977,-122.2584462
342,-0.054794312,0.003002417,-0.68006897,0.462493804,-0.571762085,0.326911882,0.890173074,1374627.733,1537498537,37.87157977,-122.2584462
343,-0.171600342,0.029446677,-0.615768433,0.379170763,-0.712677002,0.507908509,0.957353618,1374627.792,1537498537,37.87157977,-122.2584462
344,-0.124023438,0.015381813,-0.645370483,0.41650306,-0.728179932,0.530246013,0.980882708,1374627.852,1537498537,37.87157977,-122.2584462
345,-0.165634155,0.027434673,-0.63609314,0.404614483,-0.763198853,0.582472489,1.007234653,1374627.912,1537498537,37.87157977,-122.2584462
346,-0.173950195,0.03025867,-0.643096924,0.413573654,-0.73815918,0.544878975,0.99433963,1374627.971,1537498537,37.87157977,-122.2584462
347,-0.180679321,0.032645017,-0.625396729,0.391121069,-0.787689209,0.62045429,1.021871017,1374628.031,1537498537,37.87157977,-122.2584462
348,-0.16015625,0.025650024,-0.651062012,0.423881743,-0.785232544,0.616590148,1.032531799,1374628.091,1537498537,37.87157977,-122.2584462
349,-0.17036438,0.029024022,-0.629806519,0.396656251,-0.79510498,0.632191929,1.028529145,1374628.15,1537498537,37.87157977,-122.2584462
350,-0.161468506,0.026072078,-0.640441895,0.410165821,-0.71736145,0.51460745,0.975112993,1374628.21,1537498537,37.87157977,-122.2584462
351,-0.157943726,0.024946221,-0.621932983,0.386800635,-0.744842529,0.554790393,0.983126263,1374628.27,1537498537,37.87157977,-122.2584462
352,-0.112869263,0.012739471,-0.645263672,0.416365206,-0.707138062,0.500044239,0.963923708,1374628.329,1537498537,37.87157977,-122.2584462
353,-0.140808105,0.019826922,-0.647949219,0.41983819,-0.757843018,0.57432604,1.006971277,1374628.389,1537498537,37.87157977,-122.2584462
354,-0.167129517,0.027932275,-0.632019043,0.399448071,-0.761291504,0.579564754,1.003466542,1374628.448,1537498538,37.87157977,-122.2584462
355,-0.165664673,0.027444784,-0.616088867,0.379565492,-0.759231567,0.576432572,0.99168687,1374628.508,1537498538,37.87157977,-122.2584462
356,-0.198364258,0.039348379,-0.643737793,0.414398346,-0.749435425,0.561653456,1.007670671,1374628.568,1537498538,37.87157977,-122.2584462
357,-0.272018433,0.073994028,-0.683288574,0.466883275,-0.72354126,0.523511955,1.031692424,1374628.627,1537498538,37.87157977,-122.2584462
358,-0.347244263,0.120578578,-0.881347656,0.776773691,-0.78263855,0.6125231,1.22876986,1374628.687,1537498538,37.87157977,-122.2584462
359,-0.340805054,0.116148085,-0.88458252,0.782486235,-0.705764771,0.498103912,1.181836804,1374628.747,1537498538,37.87157977,-122.2584462
360,0.017776489,0.000316004,-1.064987183,1.1341977,-0.717910767,0.515395869,1.284488059,1374628.806,1537498538,37.87157977,-122.2584462
361,0.071609497,0.00512792,-0.675430298,0.456206087,-0.338806152,0.114789609,0.759028073,1374628.866,1537498538,37.87157977,-122.2584462
362,-0.394424438,0.155570637,-0.572036743,0.327226035,-0.051010132,0.002602034,0.696705609,1374628.926,1537498538,37.87157977,-122.2584462
363,-0.212203979,0.045030529,-0.839904785,0.705440048,-0.321151733,0.103138436,0.923909634,1374628.985,1537498538,37.87157977,-122.2584462
364,-0.194381714,0.037784251,-0.62272644,0.387788219,-0.644287109,0.415105879,0.916885134,1374629.045,1537498538,37.87157977,-122.2584462
365,-0.348831177,0.12168319,-0.867980957,0.753390942,-0.476043701,0.226617605,1.049615042,1374629.105,1537498538,37.87157977,-122.2584462
366,-0.464035034,0.215328513,-1.045211792,1.09246769,0.011520386,0.000132719,1.143647202,1374629.164,1537498538,37.87157977,-122.2584462
367,-1.001983643,1.003971221,-1.378051758,1.899026648,0.628982544,0.395619041,1.816209489,1374629.224,1537498538,37.87157977,-122.2584462
368,-0.184509277,0.034043673,-0.807220459,0.651604869,-0.154830933,0.023972618,0.842390147,1374629.283,1537498538,37.87157977,-122.2584462
369,-0.124740601,0.015560218,-0.868301392,0.753947307,-0.360794067,0.130172359,0.948514567,1374629.343,1537498538,37.87157977,-122.2584462
370,-0.437149048,0.19109929,-1.039871216,1.081332146,-0.559066772,0.312555656,1.258962705,1374629.403,1537498538,37.87157977,-122.2584462
371,-0.233657837,0.054595985,-0.897567749,0.805627864,-0.691513062,0.478190315,1.156898511,1374629.462,1537498538,37.87157977,-122.2584462
372,-0.222442627,0.049480722,-0.830154419,0.689156359,-0.538299561,0.289766417,1.014102312,1374629.522,1537498539,37.87157977,-122.2584462
373,-0.279708862,0.078237047,-0.930130005,0.865141826,-0.166976929,0.027881295,0.985525326,1374629.582,1537498539,37.87157977,-122.2584462
374,-0.181167603,0.0328217,-0.821868896,0.675468482,-0.289398193,0.083751314,0.889967132,1374629.641,1537498539,37.87157977,-122.2584462
375,-0.502151489,0.252156118,-0.77520752,0.600946699,0.186401367,0.03474547,0.942257017,1374629.701,1537498539,37.87157977,-122.2584462
376,-0.389678955,0.151849688,-0.849014282,0.720825251,-0.053359985,0.002847288,0.935693447,1374629.761,1537498539,37.87157977,-122.2584462
377,-0.574050903,0.329534439,-0.823303223,0.677828197,0.017959595,0.000322547,1.003835237,1374629.82,1537498539,37.87157977,-122.2584462
378,-0.670837402,0.45002282,-0.978378296,0.95722409,0.006439209,4.15E-05,1.186291858,1374629.88,1537498539,37.87157977,-122.2584462
379,-0.186737061,0.03487073,-0.733001709,0.537291505,0.275985718,0.076168117,0.805189637,1374629.94,1537498539,37.87157977,-122.2584462
380,-0.586715698,0.34423531,-0.764862061,0.585013972,0.306030273,0.093654528,1.011387073,1374629.999,1537498539,37.87157977,-122.2584462
381,-0.496948242,0.246957555,-0.800491333,0.640786374,0.217132568,0.047146552,0.966897348,1374630.059,1537498539,37.87157977,-122.2584462
382,-0.501876831,0.251880353,-0.702148438,0.493012429,0.418045044,0.174761659,0.958986153,1374630.119,1537498539,37.87157977,-122.2584462
383,-0.655807495,0.43008347,-0.618118286,0.382070215,0.701080322,0.491513618,1.141782512,1374630.178,1537498539,37.87157977,-122.2584462
384,-0.64012146,0.409755484,-0.534103394,0.285266435,0.639343262,0.408759807,1.050610168,1374630.238,1537498539,37.87157977,-122.2584462
385,-0.661148071,0.437116772,-0.592285156,0.350801706,0.810012817,0.656120764,1.201681839,1374630.298,1537498539,37.87157977,-122.2584462
386,-0.506454468,0.256496128,-0.621200562,0.385890138,0.708145142,0.501469542,1.069511949,1374630.357,1537498539,37.87157977,-122.2584462
387,-0.378463745,0.143234806,-0.679794312,0.462120307,0.612670898,0.375365629,0.990313457,1374630.417,1537498539,37.87157977,-122.2584462
388,-0.250213623,0.062606857,-0.685317993,0.469660752,-0.952133179,0.906557591,1.1995104,1374630.477,1537498539,37.87157977,-122.2584462
389,-0.461029053,0.212547788,-0.882949829,0.779600401,-0.36416626,0.132617065,1.060549505,1374630.536,1537498539,37.87157977,-122.2584462
390,0.065124512,0.004241202,-0.60295105,0.363549969,-0.689971924,0.476061256,0.918614406,1374630.596,1537498539,37.87157977,-122.2584462
391,-0.528427124,0.279235225,-1.168304443,1.364935272,-0.329818726,0.108780392,1.323990517,1374630.655,1537498539,37.87157977,-122.2584462
392,-0.557403564,0.310698733,-1.099258423,1.208369081,-0.254135132,0.064584665,1.258432548,1374630.715,1537498539,37.87157977,-122.2584462
393,-0.731277466,0.534766732,-0.907226563,0.823060037,-0.163421631,0.026706629,1.176661973,1374630.775,1537498539,37.87157977,-122.2584462
394,-0.327819824,0.107465837,-0.55847168,0.311890617,-0.988998413,0.978117861,1.182148178,1374630.834,1537498540,37.87157977,-122.2584462
395,-0.301712036,0.091030153,-0.709289551,0.503091667,-0.551773071,0.304453522,0.94793214,1374630.894,1537498540,37.87157977,-122.2584462
396,-0.408721924,0.167053611,-0.797790527,0.636469725,-0.955169678,0.912349114,1.309913146,1374630.954,1537498540,37.87157977,-122.2584462
397,-0.401184082,0.160948668,-0.747344971,0.558524506,-0.270172119,0.072992974,0.890205677,1374631.013,1537498540,37.87157977,-122.2584462
398,-0.084793091,0.007189868,-0.464630127,0.215881155,-0.726898193,0.528380983,0.866863315,1374631.073,1537498540,37.87157977,-122.2584462
399,0.033721924,0.001137168,-0.863372803,0.745412597,-0.578323364,0.334457913,1.039715191,1374631.133,1537498540,37.87157977,-122.2584462
400,-0.266433716,0.070986925,-0.665939331,0.443475193,-1.0206604,1.041747652,1.24748137,1374631.192,1537498540,37.87157977,-122.2584462
401,-0.233901978,0.054710135,-0.693099976,0.480387577,-0.499954224,0.249954226,0.886031567,1374631.252,1537498540,37.87157977,-122.2584462
402,-0.163146973,0.026616935,-0.666992188,0.444878579,-0.438919067,0.192649947,0.814951202,1374631.311,1537498540,37.87157977,-122.2584462
403,-0.22215271,0.049351827,-0.73916626,0.54636676,-0.440246582,0.193817053,0.88855818,1374631.371,1537498540,37.87157977,-122.2584462
404,-0.151550293,0.022967491,-0.808441162,0.653577112,-0.42829895,0.183439991,0.927353543,1374631.431,1537498540,37.87157977,-122.2584462
405,-0.22315979,0.049800292,-0.825424194,0.6813251,-0.772766113,0.597167465,1.152515882,1374631.49,1537498540,37.87157977,-122.2584462
406,-0.335220337,0.112372674,-0.820480347,0.673188,-0.546798706,0.298988825,1.041417063,1374631.55,1537498540,37.87157977,-122.2584462
407,-0.458145142,0.209896971,-0.773910522,0.598937496,-0.531204224,0.282177928,1.044515388,1374631.61,1537498540,37.87157977,-122.2584462
408,-0.416687012,0.173628066,-0.805847168,0.649389658,-0.323944092,0.104939775,0.963305507,1374631.669,1537498540,37.87157977,-122.2584462
409,-0.390701294,0.152647501,-0.73374939,0.538388167,-0.438766479,0.192516023,0.939974304,1374631.729,1537498540,37.87157977,-122.2584462
410,-0.30380249,0.092295953,-0.430862427,0.185642431,-0.663894653,0.44075611,0.847758512,1374631.789,1537498540,37.87157977,-122.2584462
411,-0.358840942,0.128766822,-0.865951538,0.749872066,-0.324493408,0.105295972,0.991934907,1374631.848,1537498541,37.87157977,-122.2584462
412,-0.211242676,0.044623468,-0.776306152,0.602651242,-0.717651367,0.515023485,1.078099343,1374631.908,1537498541,37.87157977,-122.2584462
413,-0.284378052,0.080870876,-0.769958496,0.592836086,-0.778076172,0.605402529,1.130977229,1374631.968,1537498541,37.87157977,-122.2584462
414,-0.343994141,0.118331969,-0.68977356,0.475787564,-0.650512695,0.423166766,1.008606117,1374632.027,1537498541,37.87157977,-122.2584462
415,-0.081359863,0.006619427,-0.846679688,0.716866494,-0.647674561,0.419482337,1.069096936,1374632.087,1537498541,37.87157977,-122.2584462
416,-0.199203491,0.039682031,-0.793151855,0.629089865,-0.236190796,0.055786092,0.85120972,1374632.147,1537498541,37.87157977,-122.2584462
417,-0.176635742,0.031200185,-0.583862305,0.340895191,-0.784225464,0.615009578,0.993531557,1374632.206,1537498541,37.87157977,-122.2584462
418,-0.217544556,0.047325634,-1.06149292,1.126767219,-0.349441528,0.122109381,1.138508777,1374632.266,1537498541,37.87157977,-122.2584462
419,-0.142456055,0.020293728,-0.851425171,0.724924822,-0.480056763,0.230454496,0.987761634,1374632.325,1537498541,37.87157977,-122.2584462
420,-0.159942627,0.025581644,-0.891326904,0.79446365,-0.363021851,0.131784864,0.975617834,1374632.385,1537498541,37.87157977,-122.2584462
421,-0.18762207,0.035202041,-1.021270752,1.042993949,-0.325668335,0.106059864,1.088235202,1374632.445,1537498541,37.87157977,-122.2584462
422,-0.10168457,0.010339752,-0.977035522,0.954598411,-0.598724365,0.358470865,1.150395162,1374632.504,1537498541,37.87157977,-122.2584462
423,0.050247192,0.00252478,-0.946609497,0.89606954,-0.521682739,0.27215288,1.082010721,1374632.564,1537498541,37.87157977,-122.2584462
424,0.018997192,0.000360893,-0.919937134,0.846284331,-0.727218628,0.528846933,1.172813778,1374632.624,1537498541,37.87157977,-122.2584462
425,0.092636108,0.008581449,-0.803329468,0.645338234,-0.497436523,0.247443094,0.949401273,1374632.683,1537498541,37.87157977,-122.2584462
426,0.056671143,0.003211618,-0.811904907,0.659189578,-0.292480469,0.085544825,0.864838726,1374632.743,1537498541,37.87157977,-122.2584462
427,-0.009841919,9.69E-05,-0.753189087,0.567293801,-0.469711304,0.220628709,0.887704553,1374632.802,1537498541,37.87157977,-122.2584462
428,0.006256104,3.91E-05,-0.883163452,0.779977683,-0.649719238,0.422135088,1.096426883,1374632.862,1537498541,37.87157977,-122.2584462
429,0.024719238,0.000611041,-0.912017822,0.831776508,-0.671569824,0.451006029,1.13286962,1374632.922,1537498541,37.87157977,-122.2584462
430,0.167312622,0.027993513,-0.888046265,0.788626169,-0.465499878,0.216690136,1.016518479,1374632.981,1537498541,37.87157977,-122.2584462
431,0.072784424,0.005297572,-0.870452881,0.757688218,-0.42906189,0.184094105,0.9731803,1374633.041,1537498541,37.87157977,-122.2584462
432,0.024902344,0.000620127,-0.884735107,0.78275621,-0.315887451,0.099784882,0.939766576,1374633.101,1537498541,37.87157977,-122.2584462
433,-0.184051514,0.03387496,-0.927215576,0.859728724,-0.342971802,0.117629657,1.005600985,1374633.16,1537498541,37.87157977,-122.2584462
434,0.022628784,0.000512062,-0.988357544,0.976850635,-0.298126221,0.088879244,1.032589919,1374633.22,1537498541,37.87157977,-122.2584462
435,-0.103622437,0.010737609,-0.996429443,0.992871635,-0.211029053,0.044533261,1.023788311,1374633.28,1537498541,37.87157977,-122.2584462
436,-0.178253174,0.031774194,-1.046340942,1.094829367,0.05506897,0.003032591,1.062843428,1374633.339,1537498541,37.87157977,-122.2584462
437,-0.062530518,0.003910066,-0.905334473,0.819630508,0.004165649,1.74E-05,0.907500924,1374633.399,1537498541,37.87157977,-122.2584462
438,-0.03868103,0.001496222,-0.944763184,0.892577474,0.014434814,0.000208364,0.945664877,1374633.459,1537498541,37.87157977,-122.2584462
439,-0.094360352,0.008903876,-0.977294922,0.955105365,-0.002105713,4.43E-06,0.98184198,1374633.518,1537498541,37.87157977,-122.2584462
440,-0.201004028,0.040402619,-0.991821289,0.983709469,0.006774902,4.59E-05,1.012006911,1374633.578,1537498542,37.87157977,-122.2584462
441,-0.254745483,0.064895261,-0.958862305,0.91941692,0.049072266,0.002408087,0.993337943,1374633.637,1537498542,37.87157977,-122.2584462
442,-0.292541504,0.085580532,-0.941619873,0.886647985,0.006515503,4.25E-05,0.986038016,1374633.697,1537498542,37.87157977,-122.2584462
443,-0.38130188,0.145391124,-0.934127808,0.872594762,0.025787354,0.000664988,1.009282355,1374633.757,1537498542,37.87157977,-122.2584462
444,-0.365463257,0.133563392,-0.901550293,0.812792931,-0.017150879,0.000294153,0.972959648,1374633.816,1537498542,37.87157977,-122.2584462
445,-0.322601318,0.10407161,-0.889038086,0.790388718,-0.087295532,0.00762051,0.949779363,1374633.876,1537498542,37.87157977,-122.2584462
446,-0.389221191,0.151493136,-0.925201416,0.85599766,-0.103622437,0.010737609,1.009073043,1374633.936,1537498542,37.87157977,-122.2584462
447,-0.479721069,0.230132304,-0.893615723,0.79854906,-0.082138062,0.006746661,1.017559839,1374633.995,1537498542,37.87157977,-122.2584462
448,-0.63381958,0.40172726,-0.874832153,0.765331296,-0.005493164,3.02E-05,1.08031881,1374634.055,1537498542,37.87157977,-122.2584462
449,-0.467956543,0.218983326,-0.933654785,0.871711258,-0.230331421,0.053052563,1.069461148,1374634.115,1537498542,37.87157977,-122.2584462
450,-0.41583252,0.172916685,-0.81803894,0.669187707,-0.196212769,0.038499451,0.938404946,1374634.174,1537498542,37.87157977,-122.2584462
451,-0.453933716,0.206055819,-0.824111938,0.679160486,-0.183441162,0.03365066,0.958575487,1374634.234,1537498542,37.87157977,-122.2584462
452,-0.485214233,0.235432852,-0.787277222,0.619805424,-0.303985596,0.092407243,0.973470862,1374634.294,1537498542,37.87157977,-122.2584462
453,-0.609237671,0.37117054,-0.760696411,0.57865903,-0.452438354,0.204700464,1.074490593,1374634.353,1537498542,37.87157977,-122.2584462
454,-0.621673584,0.386478045,-0.778808594,0.606542826,-0.131317139,0.017244191,1.005119427,1374634.413,1537498542,37.87157977,-122.2584462
455,-0.618286133,0.382277742,-0.722000122,0.521284176,-0.142822266,0.0203982,0.961228442,1374634.472,1537498542,37.87157977,-122.2584462
456,-0.619995117,0.384393945,-0.684936523,0.469138041,-0.374435425,0.140201887,0.996862013,1374634.532,1537498542,37.87157977,-122.2584462
457,-0.679534912,0.461767697,-0.298812866,0.089289129,-0.556838989,0.31006966,0.927969011,1374634.592,1537498542,37.87157977,-122.2584462
458,-0.674285889,0.45466146,-0.775390625,0.601230621,-0.613327026,0.376170041,1.19668798,1374634.651,1537498542,37.87157977,-122.2584462
459,-0.573242188,0.328606606,-0.641357422,0.411339343,-0.322113037,0.103756809,0.918532938,1374634.711,1537498542,37.87157977,-122.2584462
460,-0.677764893,0.45936525,-0.632141113,0.399602387,-0.004699707,2.21E-05,0.926816985,1374634.771,1537498542,37.87157977,-122.2584462
461,-0.647964478,0.419857965,-0.67376709,0.453962092,-0.547073364,0.299289266,1.083101714,1374634.83,1537498542,37.87157977,-122.2584462
462,-0.648239136,0.420213977,-0.71836853,0.516053345,-0.337097168,0.113634501,1.02464717,1374634.89,1537498543,37.87157977,-122.2584462
463,-0.642211914,0.412436142,-0.668823242,0.447324529,-0.186950684,0.034950558,0.945891764,1374634.95,1537498543,37.87157977,-122.2584462
464,-0.684158325,0.468072614,-0.634429932,0.402501339,-0.315460205,0.099515141,0.984931009,1374635.009,1537498544,37.87157977,-122.2584462
465,-0.663970947,0.440857418,-0.648590088,0.420669102,-0.34753418,0.120780006,0.991113781,1374635.069,1537498544,37.87157977,-122.2584462
466,-0.627120972,0.393280714,-0.647201538,0.418869831,-0.136795044,0.018712884,0.911517103,1374635.129,1537498544,37.87157977,-122.2584462
467,-0.60446167,0.36537391,-0.66557312,0.442987578,-0.450576782,0.203019436,1.005674363,1374635.188,1537498544,37.87157977,-122.2584462
468,-0.684417725,0.468427622,-0.591094971,0.349393265,-0.258499146,0.066821808,0.940554462,1374635.248,1537498544,37.87157977,-122.2584462
469,-0.718185425,0.515790305,-0.630783081,0.397887295,-0.602432251,0.362924617,1.12986823,1374635.307,1537498544,37.87157977,-122.2584462
470,-0.540115356,0.291724598,-0.721054077,0.519918982,-0.230392456,0.053080684,0.929905513,1374635.367,1537498544,37.87157977,-122.2584462
471,-0.565078735,0.319313977,-0.573867798,0.32932425,-0.199615479,0.039846339,0.829749701,1374635.427,1537498544,37.87157977,-122.2584462
472,-0.81817627,0.669412409,-0.675704956,0.456577188,-0.530685425,0.28162702,1.186430199,1374635.486,1537498544,37.87157977,-122.2584462
473,-0.661087036,0.437036069,-0.811401367,0.658372178,-0.481277466,0.231627999,1.151970593,1374635.546,1537498544,37.87157977,-122.2584462
474,-0.475952148,0.226530447,-0.669067383,0.447651163,-0.302719116,0.091638863,0.875111692,1374635.606,1537498545,37.87157977,-122.2584462
475,-0.552108765,0.304824088,-0.77935791,0.607398752,-0.444717407,0.197773572,1.053563673,1374635.665,1537498545,37.87157977,-122.2584462
476,-0.625473022,0.391216501,-0.752059937,0.565594149,-0.417648315,0.174430115,1.063598028,1374635.725,1537498545,37.87157977,-122.2584462
477,-0.5806427,0.337145945,-0.905593872,0.820100261,-0.105392456,0.01110757,1.080904147,1374635.785,1537498545,37.87157977,-122.2584462
478,-0.905807495,0.820487218,-1.450744629,2.104659979,0.170608521,0.029107267,1.71879448,1374635.844,1537498545,37.87157977,-122.2584462
479,-0.459136963,0.210806751,-1.135513306,1.289390468,0.477645874,0.228145581,1.31466452,1374635.904,1537498545,37.87157977,-122.2584462
480,-0.307983398,0.094853773,-0.596817017,0.356190552,-0.390914917,0.152814472,0.77708352,1374635.964,1537498545,37.87157977,-122.2584462
481,0.06690979,0.00447692,-0.413085938,0.170639992,-0.248657227,0.061830417,0.486772358,1374636.023,1537498545,37.87157977,-122.2584462
482,-0.319259644,0.10192672,-0.616607666,0.380205014,0.311920166,0.09729419,0.761200318,1374636.083,1537498545,37.87157977,-122.2584462
483,-0.453384399,0.205557413,-1.178070068,1.387849085,0.401062012,0.160850737,1.324483762,1374636.143,1537498545,37.87157977,-122.2584462
484,-0.328582764,0.107966633,-0.983840942,0.967942999,-0.073303223,0.005373363,1.039847582,1374636.202,1537498545,37.87157977,-122.2584462
485,-0.287704468,0.082773861,-0.963851929,0.929010541,0.044906616,0.002016604,1.006876857,1374636.262,1537498545,37.87157977,-122.2584462
486,-0.153366089,0.023521157,-0.908859253,0.826025142,-0.03956604,0.001565472,0.922557191,1374636.321,1537498545,37.87157977,-122.2584462
487,-0.345794678,0.119573959,-0.946502686,0.895867335,-0.159469604,0.025430555,1.020231272,1374636.381,1537498545,37.87157977,-122.2584462
488,-0.279037476,0.077861913,-0.976623535,0.953793529,-0.412322998,0.170010255,1.096205134,1374636.441,1537498545,37.87157977,-122.2584462
489,-0.311767578,0.097199023,-0.978790283,0.958030418,-0.164291382,0.026991658,1.040298562,1374636.5,1537498546,37.87157977,-122.2584462
490,-0.248718262,0.061860774,-0.926422119,0.858257943,-0.20513916,0.042082075,0.980918341,1374636.56,1537498546,37.87157977,-122.2584462
491,-0.327056885,0.106966206,-0.924545288,0.85478399,-0.190628052,0.036339054,0.999044168,1374636.62,1537498546,37.87157977,-122.2584462
492,-0.352630615,0.124348351,-0.919647217,0.845751004,-0.193878174,0.037588746,1.00383669,1374636.679,1537498546,37.87157977,-122.2584462
493,-0.384979248,0.148209021,-0.882858276,0.779438736,-0.151611328,0.022985995,0.975004488,1374636.739,1537498546,37.87157977,-122.2584462
494,-0.332458496,0.110528652,-0.917861938,0.842470537,-0.234191895,0.054845844,1.003914853,1374636.799,1537498546,37.87157977,-122.2584462
495,-0.379486084,0.144009688,-0.939025879,0.881769601,-0.185302734,0.034337103,1.029619538,1374636.858,1537498546,37.87157977,-122.2584462
496,-0.374465942,0.140224742,-0.881118774,0.776370294,-0.206832886,0.042779843,0.979476839,1374636.918,1537498546,37.87157977,-122.2584462
497,-0.42137146,0.177553907,-0.893112183,0.797649371,-0.187103271,0.035007634,1.00509249,1374636.978,1537498546,37.87157977,-122.2584462
498,-0.419754028,0.176193444,-0.866455078,0.750744402,-0.239318848,0.057273511,0.99207427,1374637.037,1537498546,37.87157977,-122.2584462
499,-0.434707642,0.188970734,-0.847167969,0.717693568,-0.194793701,0.037944586,0.971909917,1374637.097,1537498546,37.87157977,-122.2584462
500,-0.413116455,0.170665205,-0.848327637,0.71965978,-0.244400024,0.059731372,0.974708344,1374637.156,1537498546,37.87157977,-122.2584462
501,-0.405822754,0.164692108,-0.857162476,0.73472751,-0.292297363,0.085437748,0.992399802,1374637.216,1537498546,37.87157977,-122.2584462
502,-0.393432617,0.154789224,-0.830764771,0.690170105,-0.29234314,0.085464512,0.964584802,1374637.276,1537498546,37.87157977,-122.2584462
503,-0.390380859,0.152397215,-0.843460083,0.711424912,-0.379180908,0.143778161,1.003792951,1374637.335,1537498546,37.87157977,-122.2584462
504,-0.410705566,0.168679062,-0.830932617,0.690449014,-0.449279785,0.201852325,1.030039029,1374637.395,1537498546,37.87157977,-122.2584462
505,-0.354904175,0.125956973,-0.796035767,0.633672942,-0.39213562,0.153770344,0.95571976,1374637.455,1537498546,37.87157977,-122.2584462
506,-0.401870728,0.161500082,-0.821395874,0.674691182,-0.472076416,0.222856143,1.02910029,1374637.514,1537498547,37.87157977,-122.2584462
507,-0.438949585,0.192676738,-0.812973022,0.660925134,-0.467819214,0.218854817,1.035594848,1374637.574,1537498547,37.87157977,-122.2584462
508,-0.480529785,0.230908874,-0.776809692,0.603433298,-0.428619385,0.183714577,1.008987983,1374637.634,1537498547,37.87157977,-122.2584462
509,-0.51499939,0.265224372,-0.743469238,0.552746508,-0.315475464,0.099524768,0.957859931,1374637.693,1537498547,37.87157977,-122.2584462
510,-0.427825928,0.183035025,-0.780303955,0.608874262,-0.497589111,0.247594923,1.019560793,1374637.753,1537498547,37.87157977,-122.2584462
511,-0.479034424,0.229473979,-0.772399902,0.596601609,-0.361862183,0.130944239,0.978273902,1374637.813,1537498547,37.87157977,-122.2584462
512,-0.429473877,0.184447811,-0.780059814,0.608493313,-0.429214478,0.184225068,0.988517169,1374637.872,1537498547,37.87157977,-122.2584462
513,-0.441467285,0.194893364,-0.672897339,0.452790829,-0.371841431,0.13826605,0.886538348,1374637.932,1537498547,37.87157977,-122.2584462
514,-0.474319458,0.224978948,-0.750656128,0.563484623,-0.567047119,0.321542435,1.053568226,1374637.991,1537498547,37.87157977,-122.2584462
515,-0.445755005,0.198697524,-0.728424072,0.530601629,-0.532073975,0.283102715,1.006181827,1374638.051,1537498547,37.87157977,-122.2584462
516,-0.563568115,0.31760902,-0.700317383,0.490444437,-0.412765503,0.17037536,0.989155608,1374638.111,1537498547,37.87157977,-122.2584462
517,-0.366455078,0.134289324,-0.709243774,0.503026731,-0.524520874,0.275122147,0.955216312,1374638.17,1537498547,37.87157977,-122.2584462
518,-0.516281128,0.266546203,-0.739196777,0.546411875,-0.50100708,0.251008094,1.031487359,1374638.23,1537498547,37.87157977,-122.2584462
519,-0.477676392,0.228174735,-0.673797607,0.454003215,-0.527816772,0.278590545,0.98018799,1374638.29,1537498547,37.87157977,-122.2584462
520,-0.460418701,0.21198538,-0.843811035,0.712017063,-0.501312256,0.251313978,1.084120114,1374638.349,1537498548,37.87157977,-122.2584462
521,-0.501693726,0.251696595,-0.629837036,0.396694692,-0.388793945,0.151160732,0.894176727,1374638.409,1537498548,37.87157977,-122.2584462
522,-0.58013916,0.336561445,-0.684692383,0.468803659,-0.492172241,0.242233515,1.023522652,1374638.469,1537498548,37.87157977,-122.2584462
523,-0.533874512,0.285021995,-0.607498169,0.369054025,-0.297363281,0.088424921,0.861684943,1374638.528,1537498548,37.87157977,-122.2584462
524,-0.695175171,0.483268518,-0.652954102,0.426349059,-0.421844482,0.177952767,1.042866408,1374638.588,1537498548,37.87157977,-122.2584462
525,-0.722946167,0.52265116,-0.584747314,0.341929421,-0.542938232,0.294781924,1.076736971,1374638.647,1537498548,37.87157977,-122.2584462
526,-0.582061768,0.338795902,-0.60144043,0.361730591,-0.545425415,0.297488883,0.999007195,1374638.707,1537498548,37.87157977,-122.2584462
527,-0.613372803,0.376226195,-0.594055176,0.352901552,-0.433761597,0.188149123,0.957745723,1374638.767,1537498548,37.87157977,-122.2584462
528,-0.692138672,0.479055941,-0.555786133,0.308898226,-0.489562988,0.239671919,1.013718938,1374638.826,1537498548,37.87157977,-122.2584462
529,-0.653305054,0.426807494,-0.5574646,0.31076678,-0.461837769,0.213294125,0.975124812,1374638.886,1537498548,37.87157977,-122.2584462
530,-0.683410645,0.46705011,-0.540557861,0.292202801,-0.458694458,0.210400606,0.984709864,1374638.946,1537498548,37.87157977,-122.2584462
531,-0.630844116,0.397964299,-0.596679688,0.35602665,-0.539535522,0.291098579,1.022296204,1374639.005,1537498548,37.87157977,-122.2584462
532,-0.636871338,0.405605101,-0.587295532,0.344916042,-0.424804688,0.180459023,0.964873135,1374639.065,1537498548,37.87157977,-122.2584462
533,-0.652740479,0.426070133,-0.518829346,0.26918389,-0.423828125,0.17963028,0.935352502,1374639.125,1537498548,37.87157977,-122.2584462
534,-0.691207886,0.477768342,-0.649200439,0.42146121,-0.529541016,0.280413688,1.086113824,1374639.184,1537498548,37.87157977,-122.2584462
535,-0.693572998,0.481043504,-0.582305908,0.33908017,-0.471282959,0.222107627,1.020897302,1374639.244,1537498548,37.87157977,-122.2584462
536,-0.513717651,0.263905825,-0.511505127,0.261637495,-0.429000854,0.184041733,0.842368715,1374639.303,1537498548,37.87157977,-122.2584462
537,-0.706588745,0.499267655,-0.650650024,0.423345454,-0.340621948,0.116023311,1.019135133,1374639.363,1537498548,37.87157977,-122.2584462
538,-0.647735596,0.419561402,-0.580627441,0.337128225,-0.547164917,0.299389446,1.02765708,1374639.423,1537498548,37.87157977,-122.2584462
539,-0.526885986,0.277608842,-0.578384399,0.334528513,-0.521438599,0.271898213,0.940231656,1374639.482,1537498548,37.87157977,-122.2584462
540,-0.48248291,0.232789758,-0.592041016,0.350512565,-0.631576538,0.398888923,0.991055622,1374639.542,1537498549,37.87157977,-122.2584462
541,-0.456817627,0.208682344,-0.615264893,0.378550889,-0.656341553,0.430784234,1.008968516,1374639.602,1537498549,37.87157977,-122.2584462
542,-0.490768433,0.240853655,-0.578857422,0.335075915,-0.635192871,0.403469983,0.989646176,1374639.661,1537498549,37.87157977,-122.2584462
543,-0.479446411,0.229868861,-0.560470581,0.314127272,-0.699996948,0.489995727,1.016853903,1374639.721,1537498549,37.87157977,-122.2584462
544,-0.461853027,0.213308219,-0.52835083,0.2791546,-0.700469971,0.49065818,0.991524583,1374639.781,1537498549,37.87157977,-122.2584462
545,-0.441085815,0.194556696,-0.547454834,0.299706795,-0.769180298,0.591638331,1.042066131,1374639.84,1537498549,37.87157977,-122.2584462
546,-0.480285645,0.230674301,-0.533554077,0.284679953,-0.642166138,0.412377349,0.963188249,1374639.9,1537498549,37.87157977,-122.2584462
547,-0.427490234,0.1827479,-0.548110962,0.300425627,-0.712371826,0.507473618,0.995312587,1374639.96,1537498549,37.87157977,-122.2584462
548,-0.467651367,0.218697801,-0.520507813,0.270928383,-0.732116699,0.535994861,1.012729503,1374640.019,1537498549,37.87157977,-122.2584462
549,-0.483169556,0.23345282,-0.517578125,0.267887115,-0.721221924,0.520161064,1.010693326,1374640.079,1537498549,37.87157977,-122.2584462
550,-0.454223633,0.206319109,-0.551925659,0.304621933,-0.63458252,0.402694975,0.955843092,1374640.138,1537498549,37.87157977,-122.2584462
551,-0.531143188,0.282113086,-0.50944519,0.259534402,-0.592788696,0.351398438,0.945011072,1374640.198,1537498549,37.87157977,-122.2584462
552,-0.618469238,0.382504198,-0.55279541,0.305582765,-0.60798645,0.369647523,1.028462195,1374640.258,1537498549,37.87157977,-122.2584462
553,-0.571090698,0.326144585,-0.509796143,0.259892107,-0.715286255,0.511634427,1.04769801,1374640.317,1537498549,37.87157977,-122.2584462
554,-0.510635376,0.260748487,-0.468948364,0.219912568,-0.597457886,0.356955926,0.915214172,1374640.377,1537498549,37.87157977,-122.2584462
555,-0.572128296,0.327330787,-0.536178589,0.287487479,-0.576553345,0.33241376,0.973258458,1374640.437,1537498549,37.87157977,-122.2584462
556,-0.545059204,0.297089536,-0.608673096,0.370482938,-0.62588501,0.391732046,1.029225203,1374640.496,1537498549,37.87157977,-122.2584462
557,-0.488189697,0.23832918,-0.478408813,0.228874992,-0.430267334,0.185129979,0.807672057,1374640.556,1537498550,37.87157977,-122.2584462
558,-0.675796509,0.456700922,-0.647338867,0.419047609,-0.606414795,0.367738904,1.115117677,1374640.616,1537498550,37.87157977,-122.2584462
559,-0.614715576,0.377875239,-0.579116821,0.335376292,-0.466003418,0.217159186,0.964578,1374640.675,1537498550,37.87157977,-122.2584462
560,-0.498016357,0.248020292,-0.598251343,0.357904669,-0.547897339,0.300191494,0.951901495,1374640.735,1537498550,37.87157977,-122.2584462
561,-0.635025024,0.403256781,-0.613845825,0.376806697,-0.685668945,0.470141902,1.118125834,1374640.794,1537498550,37.87157977,-122.2584462
562,-0.614578247,0.377706422,-0.44342041,0.19662166,-0.652679443,0.425990455,1.000159256,1374640.854,1537498550,37.87157977,-122.2584462
563,-0.648681641,0.420787871,-0.527191162,0.277930521,-0.598846436,0.358617054,1.028268178,1374640.914,1537498550,37.87157977,-122.2584462
564,-0.472946167,0.223678077,-0.606155396,0.367424364,-0.553756714,0.306646498,0.947496142,1374640.973,1537498550,37.87157977,-122.2584462
565,-0.37979126,0.144241401,-0.675048828,0.45569092,-0.688095093,0.473474857,1.036053656,1374641.033,1537498550,37.87157977,-122.2584462
566,-0.419235229,0.175758177,-0.630584717,0.397637085,-0.568267822,0.322928318,0.946743672,1374641.093,1537498550,37.87157977,-122.2584462
567,-0.351272583,0.123392428,-0.644607544,0.415518886,-0.630203247,0.397156133,0.967505786,1374641.152,1537498550,37.87157977,-122.2584462
568,-0.566665649,0.321109958,-0.57875061,0.334952269,-0.440689087,0.194206871,0.922100373,1374641.212,1537498550,37.87157977,-122.2584462
569,-0.63848877,0.407667909,-0.576278687,0.332097125,-0.571990967,0.327173666,1.032927249,1374641.272,1537498550,37.87157977,-122.2584462
570,-0.422027588,0.178107285,-0.785995483,0.617788899,-0.630325317,0.397310005,1.092339778,1374641.331,1537498550,37.87157977,-122.2584462
571,-0.359710693,0.129391783,-0.774002075,0.599079212,-0.883148193,0.779950731,1.228178214,1374641.391,1537498550,37.87157977,-122.2584462
572,-0.424636841,0.180316447,-0.533676147,0.28481023,-0.717391968,0.514651236,0.989837316,1374641.451,1537498550,37.87157977,-122.2584462
573,-0.143035889,0.020459266,-0.517379761,0.267681817,-0.288650513,0.083319119,0.609475349,1374641.51,1537498551,37.87157977,-122.2584462
574,-0.430908203,0.185681879,-0.85585022,0.732479599,-0.553512573,0.306376168,1.106588292,1374641.57,1537498551,37.87157977,-122.2584462
575,0.062225342,0.003871993,-0.83102417,0.690601171,-0.75642395,0.572177192,1.125455622,1374641.629,1537498551,37.87157977,-122.2584462
576,-0.059158325,0.003499707,-0.68145752,0.464384352,-0.806304932,0.650127643,1.057360725,1374641.689,1537498551,37.87157977,-122.2584462
577,-0.008361816,6.99E-05,-0.900421143,0.810758235,-0.53062439,0.281562243,1.045174817,1374641.749,1537498551,37.87157977,-122.2584462
578,-0.156661987,0.024542978,-0.920913696,0.848082035,-0.256622314,0.065855012,0.968751787,1374641.808,1537498551,37.87157977,-122.2584462
579,-0.364196777,0.132639292,-0.999221802,0.99844421,-0.235244751,0.055340093,1.089230735,1374641.868,1537498551,37.87157977,-122.2584462
580,-0.040176392,0.001614142,-1.014831543,1.029883061,-0.085769653,0.007356433,1.019241697,1374641.928,1537498551,37.87157977,-122.2584462
581,-0.49861145,0.248613378,-0.513442993,0.263623707,-0.513183594,0.263357401,0.880678424,1374641.987,1537498551,37.87157977,-122.2584462
582,-0.472015381,0.22279852,-0.646530151,0.418001236,-0.945785522,0.894510254,1.239076273,1374642.047,1537498551,37.87157977,-122.2584462
583,-0.287017822,0.08237923,-0.962005615,0.925454803,-0.768066406,0.589926004,1.264025331,1374642.107,1537498551,37.87157977,-122.2584462
584,-0.510620117,0.260732904,-0.654388428,0.428224215,-0.681304932,0.46417641,1.073840551,1374642.166,1537498551,37.87157977,-122.2584462
585,-0.266082764,0.070800037,-0.717285156,0.514497995,-0.272964478,0.074509606,0.812285442,1374642.226,1537498551,37.87157977,-122.2584462
586,-0.418609619,0.175234013,-0.827880859,0.685386717,-0.404541016,0.163653434,1.012064308,1374642.286,1537498551,37.87157977,-122.2584462
587,-0.10975647,0.012046483,-0.920166016,0.846705497,-0.159164429,0.025333315,0.9402581,1374642.345,1537498551,37.87157977,-122.2584462
588,-0.418899536,0.175476821,-0.783279419,0.613526648,-0.286743164,0.082221642,0.933394403,1374642.405,1537498551,37.87157977,-122.2584462
589,-0.495574951,0.245594532,-0.987625122,0.975403382,0.04776001,0.002281019,1.106019409,1374642.464,1537498551,37.87157977,-122.2584462
590,-0.515365601,0.265601703,-1.172790527,1.37543762,0.053329468,0.002844032,1.282140146,1374642.524,1537498552,37.87157977,-122.2584462
591,-0.289382935,0.083742483,-1.042709351,1.087242791,0.109390259,0.011966229,1.08763574,1374642.584,1537498552,37.87157977,-122.2584462
592,-0.294036865,0.086457678,-0.861846924,0.74278012,-0.336013794,0.11290527,0.970640545,1374642.643,1537498552,37.87157977,-122.2584462
593,0.114456177,0.013100216,-0.574356079,0.329884905,-0.622207642,0.38714235,0.854474968,1374642.703,1537498552,37.87157977,-122.2584462
594,0.126174927,0.015920112,-0.836334229,0.699454943,-0.006134033,3.76E-05,0.845820715,1374642.763,1537498552,37.87157977,-122.2584462
595,0.165115356,0.027263081,-0.897964478,0.806340204,0.090438843,0.008179184,0.91748704,1374642.822,1537498552,37.87157977,-122.2584462
596,-0.230056763,0.052926114,-0.869354248,0.755776809,-0.100006104,0.010001221,0.904822714,1374642.882,1537498552,37.87157977,-122.2584462
597,-0.289077759,0.083565951,-1.21987915,1.488105141,-0.084320068,0.007109874,1.256495509,1374642.942,1537498552,37.87157977,-122.2584462
598,-0.558303833,0.31170317,-1.209533691,1.46297175,0.273239136,0.074659625,1.359902403,1374643.001,1537498552,37.87157977,-122.2584462
599,-0.176589966,0.031184016,-1.09362793,1.196022049,0.016571045,0.0002746,1.107917264,1374643.061,1537498552,37.87157977,-122.2584462
600,0.085540771,0.007317224,-0.493377686,0.243421541,-0.203399658,0.041371421,0.540472187,1374643.121,1537498552,37.87157977,-122.2584462
601,0.354492188,0.125664711,-0.101028442,0.010206746,-0.664337158,0.441343859,0.759746877,1374643.18,1537498552,37.87157977,-122.2584462
602,0.154434204,0.023849923,-0.18182373,0.033059869,-1.012466431,1.025088274,1.04019136,1374643.24,1537498552,37.87157977,-122.2584462
603,-0.243118286,0.059106501,-0.248550415,0.061777309,-1.157272339,1.339279267,1.208372077,1374643.299,1537498552,37.87157977,-122.2584462
604,0.059570313,0.003548622,0.046051025,0.002120697,-1.205215454,1.452544291,1.207565158,1374643.359,1537498552,37.87157977,-122.2584462
605,-0.012680054,0.000160784,0.19430542,0.037754596,-1.0365448,1.074425122,1.054675544,1374643.419,1537498552,37.87157977,-122.2584462
606,0.081985474,0.006721618,0.162155151,0.026294293,-1.077224731,1.160413121,1.092441775,1374643.478,1537498552,37.87157977,-122.2584462
607,0.060913086,0.003710404,0.160018921,0.025606055,-1.041793823,1.08533437,1.055770254,1374643.538,1537498553,37.87157977,-122.2584462
608,0.058792114,0.003456513,0.207275391,0.042963088,-1.018112183,1.036552417,1.040659415,1374643.598,1537498553,37.87157977,-122.2584462
609,0.024963379,0.00062317,0.048370361,0.002339692,-0.984176636,0.968603651,0.985680736,1374643.657,1537498553,37.87157977,-122.2584462
610,0.0131073,0.000171801,0.056335449,0.003173683,-1.010269165,1.020643786,1.011923549,1374643.717,1537498553,37.87157977,-122.2584462
611,-0.004425049,1.96E-05,-0.00553894,3.07E-05,-0.966705322,0.93451918,0.966731318,1374643.777,1537498553,37.87157977,-122.2584462
612,-0.01625061,0.000264082,0.032196045,0.001036585,-1.002075195,1.004154696,1.002723972,1374643.836,1537498553,37.87157977,-122.2584462
613,0.037017822,0.001370319,0.058410645,0.003411803,-1.013595581,1.027376002,1.015951832,1374643.896,1537498553,37.87157977,-122.2584462
614,0.012771606,0.000163114,-0.030197144,0.000911868,-0.968261719,0.937530756,0.968816669,1374643.955,1537498553,37.87157977,-122.2584462
615,0.006500244,4.23E-05,0.072097778,0.00519809,-1.008758545,1.017593802,1.011352631,1374644.015,1537498553,37.87157977,-122.2584462
616,0.0703125,0.004943848,0.052566528,0.00276324,-1.024429321,1.049455434,1.028184089,1374644.075,1537498553,37.87157977,-122.2584462
617,-0.032272339,0.001041504,-0.074981689,0.005622254,-0.962249756,0.925924593,0.965706141,1374644.134,1537498553,37.87157977,-122.2584462
618,0.022964478,0.000527367,0.024658203,0.000608027,-0.95652771,0.91494526,0.957121024,1374644.194,1537498553,37.87157977,-122.2584462
619,0.088134766,0.007767737,0.055877686,0.003122316,-1.050445557,1.103435868,1.05561637,1374644.254,1537498553,37.87157977,-122.2584462
620,-0.033615112,0.001129976,0.023422241,0.000548601,-1.078826904,1.163867489,1.079604588,1374644.313,1537498553,37.87157977,-122.2584462
621,0.040985107,0.001679779,0.051025391,0.002603591,-1.091964722,1.192386954,1.093924277,1374644.373,1537498553,37.87157977,-122.2584462
622,0.037780762,0.001427386,-0.140197754,0.01965541,-1.020126343,1.040657756,1.030407954,1374644.433,1537498553,37.87157977,-122.2584462
623,0.023849487,0.000568798,-0.21786499,0.047465154,-0.900192261,0.810346107,0.926488024,1374644.492,1537498553,37.87157977,-122.2584462
624,-0.064102173,0.004109089,-0.138076782,0.019065198,-0.980651855,0.961678061,0.992397273,1374644.552,1537498554,37.87157977,-122.2584462
625,0.043762207,0.001915131,-0.265853882,0.070678287,-0.893264771,0.797921951,0.933014131,1374644.612,1537498554,37.87157977,-122.2584462
626,-0.018203735,0.000331376,-0.305999756,0.093635851,-0.885406494,0.78394466,0.936969523,1374644.671,1537498554,37.87157977,-122.2584462
627,-0.11491394,0.013205214,-0.120758057,0.014582508,-0.920715332,0.847716723,0.935683945,1374644.731,1537498554,37.87157977,-122.2584462
628,0.068695068,0.004719012,-0.224441528,0.050373999,-1.001739502,1.00348203,1.02887076,1374644.79,1537498554,37.87157977,-122.2584462
629,-0.002059937,4.24E-06,-0.192123413,0.036911406,-0.867782593,0.753046629,0.888798221,1374644.85,1537498554,37.87157977,-122.2584462
630,-0.262268066,0.068784538,0.091873169,0.008440679,-0.822189331,0.675995296,0.867882776,1374644.91,1537498554,37.87157977,-122.2584462
631,-0.089645386,0.008036295,-0.10017395,0.01003482,-1.167022705,1.361941994,1.174739592,1374644.969,1537498554,37.87157977,-122.2584462
632,0.00567627,3.22E-05,-0.115982056,0.013451837,-0.868026733,0.753470409,0.875759366,1374645.029,1537498554,37.87157977,-122.2584462
633,-0.036071777,0.001301173,-0.116699219,0.013618708,-1.00869751,1.017470667,1.016066212,1374645.089,1537498554,37.87157977,-122.2584462
634,-0.026016235,0.000676844,-0.054824829,0.003005762,-1.022781372,1.046081735,1.02458008,1374645.148,1537498554,37.87157977,-122.2584462
635,-0.130767822,0.017100223,0.021255493,0.000451796,-1.021392822,1.043243297,1.029949181,1374645.208,1537498555,37.87157977,-122.2584462
636,-0.143249512,0.020520423,-0.080444336,0.006471291,-1.005599976,1.011231312,1.018932297,1374645.268,1537498555,37.87157977,-122.2584462
637,-0.053924561,0.002907858,-0.124557495,0.01551457,-0.941864014,0.887107821,0.951593531,1374645.327,1537498555,37.87157977,-122.2584462
638,-0.104568481,0.010934567,0.057525635,0.003309199,-1.069122314,1.143022522,1.075763119,1374645.387,1537498555,37.87157977,-122.2584462
639,-0.03578186,0.001280342,-0.162033081,0.026254719,-1.028457642,1.057725121,1.041758217,1374645.447,1537498555,37.87157977,-122.2584462
640,-0.193878174,0.037588746,-0.47668457,0.227228179,-0.932052612,0.868722072,1.064677884,1374645.506,1537498555,37.87157977,-122.2584462
641,0.013961792,0.000194932,-0.055526733,0.003083218,-1.013427734,1.027035772,1.015043803,1374645.566,1537498555,37.87157977,-122.2584462
642,-0.292800903,0.085732369,0.131103516,0.017188132,-0.749069214,0.561104687,0.814877407,1374645.625,1537498555,37.87157977,-122.2584462
643,0.383773804,0.147282333,-0.668411255,0.446773606,-0.781539917,0.610804642,1.097661414,1374645.685,1537498555,37.87157977,-122.2584462
644,-0.009994507,9.99E-05,-0.362350464,0.131297859,-0.827255249,0.684351247,0.903188239,1374645.745,1537498555,37.87157977,-122.2584462
645,0.163604736,0.02676651,-0.367721558,0.135219144,-0.756103516,0.571692527,0.856550162,1374645.804,1537498555,37.87157977,-122.2584462
646,-0.02494812,0.000622409,-0.226379395,0.05124763,-0.996734619,0.993479901,1.022423562,1374645.864,1537498555,37.87157977,-122.2584462
647,0.05670166,0.003215078,-0.323394775,0.10458418,-0.903656006,0.816594177,0.961453814,1374645.924,1537498555,37.87157977,-122.2584462
648,0.159408569,0.025411092,-0.320861816,0.102952305,-0.801528931,0.642448627,0.87795901,1374645.983,1537498555,37.87157977,-122.2584462
649,0.153198242,0.023469701,-0.363327026,0.132006528,-0.923141479,0.85219019,1.003825891,1374646.043,1537498555,37.87157977,-122.2584462
650,0.226333618,0.051226907,-0.480728149,0.231099553,-0.952331543,0.906935368,1.090532818,1374646.103,1537498555,37.87157977,-122.2584462
651,0.00189209,3.58E-06,-0.409729004,0.167877857,-0.819915771,0.672261872,0.916593317,1374646.162,1537498555,37.87157977,-122.2584462
652,0.048339844,0.002336741,-0.133010864,0.01769189,-1.432800293,2.05291668,1.439772659,1374646.222,1537498555,37.87157977,-122.2584462
653,0.04699707,0.002208725,-0.504638672,0.254660189,-0.858322144,0.736716903,0.996787749,1374646.282,1537498555,37.87157977,-122.2584462
654,0.462005615,0.213449188,-0.318847656,0.101663828,-0.743255615,0.552428909,0.931419307,1374646.341,1537498555,37.87157977,-122.2584462
655,0.396057129,0.156861249,-0.07762146,0.006025091,-0.616790771,0.380430855,0.737100533,1374646.401,1537498555,37.87157977,-122.2584462
656,0.273620605,0.074868235,0.021972656,0.000482798,-1.144226074,1.309253308,1.176692118,1374646.46,1537498555,37.87157977,-122.2584462
657,0.16343689,0.026711617,0.35446167,0.125643075,-1.241928101,1.542385408,1.301821839,1374646.52,1537498556,37.87157977,-122.2584462
658,0.178405762,0.031828616,0.256576538,0.06583152,-0.830459595,0.689663139,0.887312388,1374646.58,1537498556,37.87157977,-122.2584462
659,0.259384155,0.06728014,0.264083862,0.069740286,-0.757446289,0.573724881,0.84305712,1374646.639,1537498556,37.87157977,-122.2584462
660,0.335342407,0.11245453,0.416275024,0.173284896,-0.844345093,0.712918636,0.999328806,1374646.699,1537498556,37.87157977,-122.2584462
661,0.525634766,0.276291907,0.394958496,0.155992214,-0.796203613,0.633940193,1.032581384,1374646.759,1537498556,37.87157977,-122.2584462
662,0.695648193,0.483926408,0.596862793,0.356245194,-0.470352173,0.221231167,1.030244034,1374646.818,1537498556,37.87157977,-122.2584462
663,0.540374756,0.292004877,0.383605957,0.14715353,-0.196670532,0.038679298,0.69125806,1374646.878,1537498556,37.87157977,-122.2584462
664,0.391708374,0.15343545,0.550323486,0.302855939,-0.386123657,0.149091478,0.778063537,1374646.938,1537498556,37.87157977,-122.2584462
665,0.60736084,0.36888719,0.663635254,0.44041175,-0.486724854,0.236901084,1.022839197,1374646.997,1537498556,37.87157977,-122.2584462
666,0.598144531,0.35777688,1.227386475,1.506477559,0.074401855,0.005535636,1.367402675,1374647.057,1537498556,37.87157977,-122.2584462
667,0.56678772,0.32124832,0.991012573,0.98210592,-0.087036133,0.007575288,1.144958308,1374647.117,1537498556,37.87157977,-122.2584462
668,0.512557983,0.262715686,0.427337646,0.182617464,0.114822388,0.013184181,0.677139078,1374647.176,1537498556,37.87157977,-122.2584462
669,0.70199585,0.492798173,0.91394043,0.83528711,0.294464111,0.086709113,1.1894513,1374647.236,1537498556,37.87157977,-122.2584462
670,0.423873901,0.179669084,1.108398438,1.228547097,-0.019668579,0.000386853,1.186845834,1374647.295,1537498556,37.87157977,-122.2584462
671,0.521972656,0.272455454,0.792007446,0.627275795,0.051651001,0.002667826,0.94994688,1374647.355,1537498556,37.87157977,-122.2584462
672,0.47833252,0.228802,0.809631348,0.65550292,0.22354126,0.049970695,0.966579337,1374647.415,1537498557,37.87157977,-122.2584462
673,1.052154541,1.107029178,0.631515503,0.398811831,0.035095215,0.001231674,1.227628886,1374647.474,1537498557,37.87157977,-122.2584462
674,0.296539307,0.087935561,0.996368408,0.992750004,-0.097854614,0.009575525,1.044155683,1374647.534,1537498557,37.87157977,-122.2584462
675,0.567306519,0.321836686,0.497207642,0.247215439,-0.446136475,0.199037754,0.876407371,1374647.594,1537498557,37.87157977,-122.2584462
676,0.480514526,0.23089421,0.745040894,0.555085934,0.00894165,8.00E-05,0.886600303,1374647.653,1537498557,37.87157977,-122.2584462
677,0.551147461,0.303763524,1.376312256,1.894235426,0.238647461,0.056952611,1.501649613,1374647.713,1537498557,37.87157977,-122.2584462
678,0.459106445,0.210778728,0.891784668,0.795279894,-0.107299805,0.011513248,1.008747674,1374647.773,1537498557,37.87157977,-122.2584462
679,0.373550415,0.139539913,0.863830566,0.746203247,-0.071594238,0.005125735,0.943858514,1374647.832,1537498557,37.87157977,-122.2584462
680,0.605560303,0.366703281,1.222518921,1.494552512,0.119018555,0.014165416,1.369460189,1374647.892,1537498557,37.87157977,-122.2584462
681,0.459609985,0.211241338,0.796905518,0.635058405,-0.037918091,0.001437782,0.920726629,1374647.951,1537498557,37.87157977,-122.2584462
682,0.293273926,0.086009596,0.676574707,0.457753334,-0.017333984,0.000300467,0.737606533,1374648.011,1537498557,37.87157977,-122.2584462
683,0.487503052,0.237659226,1.093276978,1.195254551,-0.210342407,0.044243928,1.215383768,1374648.071,1537498557,37.87157977,-122.2584462
684,0.186660767,0.034842242,1.161468506,1.34900909,-0.25201416,0.063511137,1.203063784,1374648.13,1537498557,37.87157977,-122.2584462
685,0.34727478,0.120599773,0.952987671,0.908185501,0.076843262,0.005904887,1.017197208,1374648.19,1537498557,37.87157977,-122.2584462
686,0.287109375,0.082431793,0.928451538,0.862022258,-0.141067505,0.019900041,0.982015322,1374648.25,1537498557,37.87157977,-122.2584462
687,0.586120605,0.343537364,1.076690674,1.159262807,0.163528442,0.026741551,1.236746426,1374648.309,1537498557,37.87157977,-122.2584462
688,-0.048248291,0.002327898,0.669052124,0.447630745,0.030548096,0.000933186,0.671484794,1374648.369,1537498558,37.87157977,-122.2584462
689,0.236373901,0.055872621,0.980636597,0.961648135,-0.256759644,0.065925515,1.040887252,1374648.429,1537498558,37.87157977,-122.2584462
690,0.229904175,0.05285593,1.09185791,1.192153696,-0.04927063,0.002427595,1.116887291,1374648.488,1537498558,37.87157977,-122.2584462
691,0.206970215,0.04283667,0.845367432,0.714646095,-0.172073364,0.029609243,0.88718206,1374648.548,1537498558,37.87157977,-122.2584462
692,0.086990356,0.007567322,0.91809082,0.842890754,-0.358734131,0.128690177,0.989519203,1374648.607,1537498558,37.87157977,-122.2584462
693,0.321975708,0.103668357,0.911972046,0.831693013,-0.100784302,0.010157476,0.972377933,1374648.667,1537498558,37.87157977,-122.2584462
694,0.286697388,0.082195392,0.945663452,0.894279364,-0.290435791,0.084352949,1.029964905,1374648.727,1537498558,37.87157977,-122.2584462
695,0.036773682,0.001352304,0.963088989,0.927540401,-0.285842896,0.081706161,1.005285465,1374648.786,1537498558,37.87157977,-122.2584462
696,0.105606079,0.011152644,0.975723267,0.952035894,-0.097015381,0.009411984,0.986205111,1374648.846,1537498558,37.87157977,-122.2584462
697,0.192398071,0.037017018,0.951950073,0.906208941,-0.225708008,0.050944105,0.997080771,1374648.906,1537498558,37.87157977,-122.2584462
698,0.235977173,0.055685226,0.96144104,0.924368873,-0.176422119,0.031124764,1.005573898,1374648.965,1537498558,37.87157977,-122.2584462
699,0.157928467,0.024941401,0.951690674,0.905715139,-0.225769043,0.050971661,0.990771518,1374649.025,1537498558,37.87157977,-122.2584462
700,0.202041626,0.040820819,0.96257019,0.926541371,-0.225021362,0.050634613,1.008958276,1374649.085,1537498558,37.87157977,-122.2584462
701,0.236663818,0.056009763,0.937744141,0.879364074,-0.239807129,0.057507459,0.996434291,1374649.144,1537498558,37.87157977,-122.2584462
702,0.308731079,0.095314879,0.935058594,0.874334574,-0.180175781,0.032463312,1.001055825,1374649.204,1537498558,37.87157977,-122.2584462
703,-0.009719849,9.45E-05,0.928787231,0.86264572,-0.21585083,0.046591581,0.953588893,1374649.264,1537498558,37.87157977,-122.2584462
704,0.239089966,0.057164012,0.929336548,0.863666419,-0.225143433,0.050689565,0.98565714,1374649.323,1537498558,37.87157977,-122.2584462
705,0.153503418,0.023563299,0.935836792,0.875790501,-0.307495117,0.094553247,0.996948869,1374649.383,1537498558,37.87157977,-122.2584462
706,-0.01701355,0.000289461,0.956985474,0.915821197,-0.409240723,0.167477969,1.040955632,1374649.442,1537498558,37.87157977,-122.2584462
707,-0.180038452,0.032413844,1.152816772,1.32898651,-0.035919189,0.001290188,1.167343369,1374649.502,1537498558,37.87157977,-122.2584462
708,0.064575195,0.004169956,1.105133057,1.221319074,-0.164474487,0.027051857,1.119169731,1374649.562,1537498559,37.87157977,-122.2584462
709,0.358306885,0.128383824,0.742034912,0.550615811,-0.198379517,0.039354433,0.847557707,1374649.621,1537498559,37.87157977,-122.2584462
710,0.132354736,0.017517776,1.148696899,1.319504566,-0.222061157,0.049311157,1.177426643,1374649.681,1537498559,37.87157977,-122.2584462
711,0.045089722,0.002033083,0.998947144,0.997895397,-0.249984741,0.062492371,1.030738012,1374649.741,1537498559,37.87157977,-122.2584462
712,0.041442871,0.001717512,1.070297241,1.145536184,-0.222595215,0.04954863,1.093984609,1374649.8,1537498559,37.87157977,-122.2584462
713,0.142593384,0.020332873,0.944473267,0.892029752,-0.198638916,0.039457419,0.975612651,1374649.86,1537498559,37.87157977,-122.2584462
714,-0.035202026,0.001239183,0.830032349,0.6889537,-0.264312744,0.069861227,0.871810822,1374649.92,1537498559,37.87157977,-122.2584462
715,0.211532593,0.044746038,0.614898682,0.378100389,-0.34223938,0.117127793,0.734829382,1374649.979,1537498559,37.87157977,-122.2584462
716,0.095825195,0.009182468,1.148406982,1.318838596,-0.176513672,0.031157076,1.165837956,1374650.039,1537498559,37.87157977,-122.2584462
717,0.11126709,0.012380365,0.797409058,0.635861206,-0.212524414,0.045166627,0.832711353,1374650.099,1537498559,37.87157977,-122.2584462
718,0.583602905,0.340592351,0.721954346,0.521218078,0.068389893,0.004677177,0.93085316,1374650.158,1537498559,37.87157977,-122.2584462
719,0.044281006,0.001960807,1.040466309,1.08257014,-0.348419189,0.121395931,1.098147021,1374650.218,1537498559,37.87157977,-122.2584462
720,0.000564575,3.19E-07,1.008926392,1.017932464,-0.103591919,0.010731286,1.014230777,1374650.278,1537498559,37.87157977,-122.2584462
721,0.12336731,0.015219493,0.812835693,0.660701864,-0.272720337,0.074376382,0.866197287,1374650.337,1537498559,37.87157977,-122.2584462
722,0.08366394,0.006999655,0.956115723,0.914157276,-0.253646851,0.064336725,0.992720331,1374650.397,1537498559,37.87157977,-122.2584462
723,0.138870239,0.019284943,1.25970459,1.586855654,-0.340911865,0.1162209,1.312387708,1374650.456,1537498559,37.87157977,-122.2584462
724,0.166366577,0.027677838,0.897491455,0.805490912,-0.241012573,0.05808706,0.944063457,1374650.516,1537498560,37.87157977,-122.2584462
725,0.37361145,0.139585516,0.902114868,0.813811235,-0.105422974,0.011114003,0.982095084,1374650.576,1537498560,37.87157977,-122.2584462
726,0.299530029,0.089718238,0.873626709,0.763223627,-0.329666138,0.108679763,0.980623081,1374650.635,1537498560,37.87157977,-122.2584462
727,0.130249023,0.016964808,0.91418457,0.835733428,-0.24836731,0.061686321,0.956234572,1374650.695,1537498560,37.87157977,-122.2584462
728,0.081542969,0.006649256,0.915328979,0.83782714,-0.276931763,0.076691201,0.959774764,1374650.755,1537498560,37.87157977,-122.2584462
729,-0.00604248,3.65E-05,0.841400146,0.707954206,-0.428405762,0.183531497,0.94420454,1374650.814,1537498560,37.87157977,-122.2584462
730,0.053192139,0.002829404,0.698699951,0.488181622,-0.168731689,0.028470383,0.720750587,1374650.874,1537498560,37.87157977,-122.2584462
731,0.356506348,0.127096776,0.389877319,0.152004324,-0.101119995,0.010225253,0.537890652,1374650.934,1537498560,37.87157977,-122.2584462
732,0.497329712,0.247336842,1.671722412,2.794655823,-0.43611145,0.190193197,1.797828096,1374650.993,1537498560,37.87157977,-122.2584462
733,0.330459595,0.109203544,0.76574707,0.586368575,-0.289627075,0.083883843,0.882868032,1374651.053,1537498560,37.87157977,-122.2584462
734,0.34854126,0.12148101,0.917098999,0.841070574,-0.289138794,0.083601242,1.022816125,1374651.113,1537498560,37.87157977,-122.2584462
735,0.330444336,0.109193459,0.910888672,0.829718173,-0.324050903,0.105008988,1.021724336,1374651.172,1537498560,37.87157977,-122.2584462
736,0.356063843,0.12678146,0.91960144,0.845666808,-0.350311279,0.122717992,1.046501916,1374651.232,1537498560,37.87157977,-122.2584462
737,0.244506836,0.059783593,0.920120239,0.846621254,-0.283157349,0.080178084,0.993268811,1374651.292,1537498560,37.87157977,-122.2584462
738,0.275924683,0.076134431,0.872695923,0.761598174,-0.365036011,0.133251289,0.98538515,1374651.351,1537498560,37.87157977,-122.2584462
739,0.36340332,0.132061973,0.890319824,0.792669389,-0.246765137,0.060893033,0.992786178,1374651.411,1537498560,37.87157977,-122.2584462
740,0.376525879,0.141771738,0.88482666,0.782918218,-0.371582031,0.138073206,1.030904051,1374651.47,1537498560,37.87157977,-122.2584462
741,0.334152222,0.111657707,0.919723511,0.845891337,-0.21647644,0.046862049,1.00220312,1374651.53,1537498561,37.87157977,-122.2584462
742,0.362411499,0.131342095,0.89364624,0.798603602,-0.257080078,0.066090167,0.998015963,1374651.59,1537498561,37.87157977,-122.2584462
743,0.338653564,0.114686236,0.895568848,0.802043562,-0.314025879,0.098612253,1.007641827,1374651.649,1537498561,37.87157977,-122.2584462
744,0.301147461,0.090689793,0.886199951,0.785350353,-0.290847778,0.08459243,0.980118654,1374651.709,1537498561,37.87157977,-122.2584462
745,0.333511353,0.111229823,0.907470703,0.823503077,-0.267959595,0.071802345,1.003262301,1374651.769,1537498561,37.87157977,-122.2584462
746,0.365112305,0.133306995,0.886962891,0.78670317,-0.265258789,0.070362225,0.995174553,1374651.828,1537498561,37.87157977,-122.2584462
747,0.316101074,0.099919889,0.895736694,0.802344225,-0.251815796,0.063411195,0.982687798,1374651.888,1537498561,37.87157977,-122.2584462
748,0.356384277,0.127009753,0.943862915,0.890877202,-0.274200439,0.075185881,1.045501237,1374651.948,1537498561,37.87157977,-122.2584462
749,0.375473022,0.14097999,0.869842529,0.756626025,-0.223144531,0.049793482,0.973344491,1374652.007,1537498561,37.87157977,-122.2584462
750,0.361328125,0.130558014,0.870452881,0.757688218,-0.26701355,0.071296236,0.979562386,1374652.067,1537498561,37.87157977,-122.2584462
751,0.32951355,0.10857918,0.905151367,0.819298997,-0.274337769,0.075261211,1.001568464,1374652.127,1537498561,37.87157977,-122.2584462
752,0.326858521,0.106836493,0.922912598,0.851767664,-0.276397705,0.076395691,1.017349423,1374652.186,1537498561,37.87157977,-122.2584462
753,0.32182312,0.103570121,0.879379272,0.773307904,-0.23425293,0.054874435,0.965273257,1374652.246,1537498561,37.87157977,-122.2584462
754,0.282562256,0.079841429,0.96270752,0.926805769,-0.280029297,0.078416407,1.041663864,1374652.306,1537498561,37.87157977,-122.2584462
755,0.191268921,0.0365838,0.919677734,0.845807134,-0.252075195,0.063541904,0.972590787,1374652.365,1537498561,37.87157977,-122.2584462
756,0.233886719,0.054702997,0.920715332,0.847716723,-0.271636963,0.07378664,0.988031558,1374652.425,1537498561,37.87157977,-122.2584462
757,0.261016846,0.068129794,0.930099487,0.865085056,-0.261932373,0.068608568,1.000911294,1374652.485,1537498561,37.87157977,-122.2584462
758,0.273010254,0.074534599,0.933639526,0.871682765,-0.278900146,0.077785291,1.011930163,1374652.544,1537498562,37.87157977,-122.2584462
759,0.508453369,0.258524828,0.901031494,0.811857753,-0.162155151,0.026294293,1.047223412,1374652.604,1537498562,37.87157977,-122.2584462
760,0.417358398,0.174188032,0.868011475,0.753443921,-0.252075195,0.063541904,0.995577148,1374652.663,1537498562,37.87157977,-122.2584462
761,0.368545532,0.135825809,0.927871704,0.860945899,-0.237823486,0.05656001,1.026319501,1374652.723,1537498562,37.87157977,-122.2584462
762,0.252151489,0.063580373,0.973373413,0.947455801,-0.223739624,0.050059419,1.030094944,1374652.783,1537498562,37.87157977,-122.2584462
763,0.083175659,0.00691819,0.984329224,0.968904021,-0.217224121,0.047186319,1.011438842,1374652.842,1537498562,37.87157977,-122.2584462
764,0.03288269,0.001081271,1.011383057,1.022895688,-0.205490112,0.042226186,1.032571133,1374652.902,1537498562,37.87157977,-122.2584462
765,0.998031616,0.996067107,0.61088562,0.373181241,-0.409835815,0.167965395,1.239844241,1374652.962,1537498562,37.87157977,-122.2584462
766,0.397964478,0.158375726,0.951187134,0.904756964,-0.176864624,0.031281095,1.046142335,1374653.021,1537498562,37.87157977,-122.2584462
767,0.29234314,0.085464512,0.876800537,0.768779182,-0.393997192,0.155233787,1.004727565,1374653.081,1537498562,37.87157977,-122.2584462
768,0.419906616,0.176321566,0.861846924,0.74278012,-0.223495483,0.049950231,0.984404347,1374653.141,1537498562,37.87157977,-122.2584462
769,0.607666016,0.369257987,0.794021606,0.630470311,-0.275802612,0.076067081,1.037205562,1374653.2,1537498562,37.87157977,-122.2584462
770,0.462936401,0.214310111,0.880218506,0.774784618,-0.299621582,0.089773092,1.038685622,1374653.26,1537498562,37.87157977,-122.2584462
771,0.333694458,0.111351991,0.907669067,0.823863135,-0.294876099,0.086951914,1.011022769,1374653.32,1537498562,37.87157977,-122.2584462
772,0.35597229,0.126716271,0.911178589,0.830246421,-0.2837677,0.080524108,1.01857096,1374653.379,1537498562,37.87157977,-122.2584462
773,0.491531372,0.24160309,0.826644897,0.683341786,-0.290802002,0.084565804,1.004744087,1374653.439,1537498562,37.87157977,-122.2584462
774,0.476867676,0.22740278,0.842224121,0.70934147,-0.297866821,0.088724643,1.01265438,1374653.498,1537498563,37.87157977,-122.2584462
775,0.368362427,0.135690878,0.781112671,0.610137005,-0.269592285,0.07268,0.904714255,1374653.558,1537498563,37.87157977,-122.2584462
776,0.045532227,0.002073184,1.098251343,1.206156012,-0.238876343,0.057061907,1.124851592,1374653.618,1537498563,37.87157977,-122.2584462
777,0.199432373,0.039773271,0.42791748,0.18311337,-0.216934204,0.047060449,0.519564327,1374653.677,1537498563,37.87157977,-122.2584462
778,0.433258057,0.187712544,0.850448608,0.723262835,-0.247268677,0.061141799,0.985960028,1374653.737,1537498563,37.87157977,-122.2584462
779,1.123382568,1.261988394,2.826721191,7.990352692,-0.27784729,0.077199117,3.054429603,1374653.797,1537498563,37.87157977,-122.2584462
780,0.248886108,0.061944295,0.818099976,0.669287571,-0.178451538,0.031844951,0.873542682,1374653.856,1537498563,37.87157977,-122.2584462
781,0.288208008,0.083063856,0.879943848,0.774301176,-0.289993286,0.084096106,0.970289203,1374653.916,1537498563,37.87157977,-122.2584462
782,0.396759033,0.15741773,0.949661255,0.901856499,-0.139892578,0.019569933,1.038674233,1374653.976,1537498563,37.87157977,-122.2584462
783,0.548339844,0.300676585,0.797943115,0.636713215,-0.323928833,0.104929889,1.02094059,1374654.035,1537498563,37.87157977,-122.2584462
784,0.45098877,0.203390871,0.818832397,0.670486494,-0.306030273,0.093654528,0.983631991,1374654.095,1537498563,37.87157977,-122.2584462
785,0.225250244,0.050737672,0.886001587,0.784998812,-0.203567505,0.041439729,0.936576859,1374654.155,1537498563,37.87157977,-122.2584462
786,0.299224854,0.089535513,0.90385437,0.816952722,-0.295715332,0.087447558,0.996963286,1374654.214,1537498563,37.87157977,-122.2584462
787,0.500762939,0.250763521,0.897674561,0.805819617,-0.368637085,0.1358933,1.092005695,1374654.274,1537498563,37.87157977,-122.2584462
788,0.499343872,0.249344303,0.929168701,0.863354475,-0.291229248,0.084814475,1.094309487,1374654.334,1537498563,37.87157977,-122.2584462
789,0.341201782,0.116418656,0.897705078,0.805874407,-0.245452881,0.060247117,0.991231648,1374654.393,1537498563,37.87157977,-122.2584462
790,0.272323608,0.074160147,0.871185303,0.758963832,-0.267684937,0.071655225,0.951198825,1374654.453,1537498563,37.87157977,-122.2584462
791,0.36630249,0.134177514,0.866958618,0.751617245,-0.310333252,0.096306727,0.991010336,1374654.512,1537498564,37.87157977,-122.2584462
792,0.510391235,0.260499213,0.866256714,0.750400695,-0.288665771,0.083327927,1.046053457,1374654.572,1537498564,37.87157977,-122.2584462
793,0.287887573,0.082879255,0.920913696,0.848082035,-0.251373291,0.063188531,0.99707062,1374654.632,1537498564,37.87157977,-122.2584462
794,0.226165771,0.051150956,0.925170898,0.855941191,-0.276901245,0.076674299,0.991850012,1374654.691,1537498564,37.87157977,-122.2584462
795,0.486541748,0.236722873,0.862548828,0.743990481,-0.23109436,0.053404603,1.016915904,1374654.751,1537498564,37.87157977,-122.2584462
796,0.58114624,0.337730952,0.820556641,0.673313201,-0.30909729,0.095541135,1.051943576,1374654.811,1537498564,37.87157977,-122.2584462
797,0.285202026,0.081340196,0.87387085,0.763650262,-0.307861328,0.094778597,0.969416864,1374654.87,1537498564,37.87157977,-122.2584462
798,0.251159668,0.063081179,0.905349731,0.819658135,-0.253662109,0.064344466,0.973182295,1374654.93,1537498564,37.87157977,-122.2584462
799,0.303024292,0.091823722,0.912307739,0.832305411,-0.320785522,0.102903351,1.013426111,1374654.99,1537498564,37.87157977,-122.2584462
800,0.475479126,0.226080399,0.887664795,0.787948788,-0.335678101,0.112679787,1.061465485,1374655.049,1537498564,37.87157977,-122.2584462
801,0.41796875,0.174697876,0.904312134,0.817780436,-0.324066162,0.105018877,1.047615,1374655.109,1537498564,37.87157977,-122.2584462
802,0.250900269,0.062950945,0.899368286,0.808863314,-0.279830933,0.078305351,0.974740791,1374655.169,1537498564,37.87157977,-122.2584462
803,0.282669067,0.079901801,0.900817871,0.811472837,-0.22492981,0.050593419,0.970550389,1374655.228,1537498564,37.87157977,-122.2584462
804,0.455245972,0.207248895,0.836013794,0.698919064,-0.272247314,0.0741186,0.990094217,1374655.288,1537498564,37.87157977,-122.2584462
805,0.362823486,0.131640882,0.891693115,0.795116611,-0.290634155,0.084468212,1.005597188,1374655.348,1537498564,37.87157977,-122.2584462
806,0.346969604,0.120387906,0.917999268,0.842722656,-0.273864746,0.075001899,1.01887804,1374655.407,1537498564,37.87157977,-122.2584462
807,0.389984131,0.152087622,0.891067505,0.794001298,-0.282501221,0.07980694,1.012865174,1374655.467,1537498564,37.87157977,-122.2584462
808,0.382736206,0.146487003,0.880081177,0.774542878,-0.251312256,0.06315785,0.992062363,1374655.526,1537498565,37.87157977,-122.2584462
809,0.393722534,0.155017434,0.870483398,0.757741346,-0.267166138,0.071377745,0.992036554,1374655.586,1537498565,37.87157977,-122.2584462
810,0.354629517,0.125762094,0.884674072,0.782648214,-0.281967163,0.079505481,0.99393953,1374655.646,1537498565,37.87157977,-122.2584462
811,0.363632202,0.132228378,0.889389038,0.791012861,-0.293533325,0.086161813,1.004690526,1374655.705,1537498565,37.87157977,-122.2584462
812,0.396362305,0.157103077,0.879272461,0.773120061,-0.250167847,0.062583952,0.996397054,1374655.765,1537498565,37.87157977,-122.2584462
813,0.352218628,0.124057962,0.886245728,0.78543149,-0.229293823,0.052575657,0.980849178,1374655.825,1537498565,37.87157977,-122.2584462
814,0.375930786,0.141323956,0.888198853,0.788897202,-0.272399902,0.074201707,1.002208993,1374655.884,1537498565,37.87157977,-122.2584462
815,0.40953064,0.167715345,0.873443604,0.762903729,-0.292694092,0.085669831,1.008111554,1374655.944,1537498565,37.87157977,-122.2584462
816,0.396728516,0.157393515,0.876434326,0.768137128,-0.280883789,0.078895703,1.002210729,1374656.004,1537498565,37.87157977,-122.2584462
817,0.328170776,0.107696058,0.896606445,0.803903117,-0.320358276,0.102629425,1.007089172,1374656.063,1537498565,37.87157977,-122.2584462
818,0.274185181,0.075177513,0.910858154,0.829662577,-0.261734009,0.068504691,0.986582374,1374656.123,1537498565,37.87157977,-122.2584462
819,0.464538574,0.215796087,0.868438721,0.754185812,-0.250030518,0.06251526,1.016118674,1374656.183,1537498565,37.87157977,-122.2584462
820,0.520492554,0.270912499,0.830825806,0.69027152,-0.297698975,0.08862468,1.024601727,1374656.242,1537498565,37.87157977,-122.2584462
821,0.323242188,0.104485512,0.856887817,0.734256731,-0.276992798,0.07672501,0.956800529,1374656.302,1537498565,37.87157977,-122.2584462
822,0.301818848,0.091094617,0.846405029,0.716401473,-0.224151611,0.050243945,0.926142556,1374656.361,1537498565,37.87157977,-122.2584462
823,0.295211792,0.087150002,0.866073608,0.750083494,-0.331726074,0.110042188,0.973280887,1374656.421,1537498565,37.87157977,-122.2584462
824,0.265869141,0.0706864,0.954101563,0.910309793,-0.269515991,0.072638869,1.026467273,1374656.481,1537498566,37.87157977,-122.2584462
825,0.502838135,0.25284619,0.877563477,0.770117656,-0.292724609,0.085687697,1.052925231,1374656.54,1537498566,37.87157977,-122.2584462
826,0.516586304,0.266861409,0.902832031,0.815105676,-0.20513916,0.042082075,1.060211847,1374656.6,1537498566,37.87157977,-122.2584462
827,0.320877075,0.102962097,0.930526733,0.865880001,-0.250183105,0.062591586,1.015595236,1374656.66,1537498566,37.87157977,-122.2584462
828,0.325759888,0.106119505,0.906097412,0.82101252,-0.277709961,0.077122822,1.002125165,1374656.719,1537498566,37.87157977,-122.2584462
829,0.385528564,0.148632274,0.905715942,0.820321368,-0.28314209,0.080169443,1.024267096,1374656.779,1537498566,37.87157977,-122.2584462
830,0.435043335,0.189262703,0.859909058,0.739443588,-0.264526367,0.069974199,0.999340027,1374656.839,1537498566,37.87157977,-122.2584462
831,0.365188599,0.133362713,0.867645264,0.752808304,-0.267700195,0.071663394,0.978690151,1374656.898,1537498566,37.87157977,-122.2584462
832,0.301055908,0.09063466,0.903427124,0.816180568,-0.240524292,0.057851935,0.982174711,1374656.958,1537498566,37.87157977,-122.2584462
833,0.384918213,0.148162031,0.802703857,0.644333482,-0.305023193,0.093039148,0.941028512,1374657.018,1537498566,37.87157977,-122.2584462
834,0.402679443,0.162150734,0.894073486,0.799367398,-0.341842651,0.116856398,1.038448136,1374657.077,1537498566,37.87157977,-122.2584462
835,0.351348877,0.123446033,0.913421631,0.834339076,-0.319152832,0.10185853,1.029389936,1374657.137,1537498566,37.87157977,-122.2584462
836,0.328369141,0.107826293,0.89414978,0.799503829,-0.258407593,0.066774484,0.986967378,1374657.196,1537498566,37.87157977,-122.2584462
837,0.398345947,0.158679493,0.871337891,0.75922972,-0.237609863,0.056458447,0.987100634,1374657.256,1537498566,37.87157977,-122.2584462
838,0.353729248,0.125124381,0.900665283,0.811197952,-0.29536438,0.087240117,1.011712632,1374657.316,1537498566,37.87157977,-122.2584462
839,0.414871216,0.172118126,0.873428345,0.762877074,-0.300460815,0.090276701,1.01255711,1374657.375,1537498566,37.87157977,-122.2584462
840,0.322845459,0.10422919,0.888259888,0.789005629,-0.283096313,0.080143522,0.986599382,1374657.435,1537498566,37.87157977,-122.2584462
841,0.315628052,0.099621067,0.902252197,0.814059027,-0.263565063,0.069466542,0.991537511,1374657.495,1537498567,37.87157977,-122.2584462
842,0.410049438,0.168140542,0.867736816,0.752967182,-0.253631592,0.064328984,0.992691648,1374657.554,1537498567,37.87157977,-122.2584462
843,0.414581299,0.171877653,0.856338501,0.733315628,-0.294845581,0.086933917,0.996055821,1374657.614,1537498567,37.87157977,-122.2584462
844,0.325149536,0.105722221,0.88168335,0.77736553,-0.29460144,0.086790008,0.98482372,1374657.674,1537498567,37.87157977,-122.2584462
845,0.348556519,0.121491647,0.878646851,0.772020289,-0.27507019,0.075663609,0.984467138,1374657.733,1537498567,37.87157977,-122.2584462
846,0.391448975,0.1532323,0.8644104,0.74720534,-0.256698608,0.065894175,0.983021777,1374657.793,1537498567,37.87157977,-122.2584462
847,0.412368774,0.170048006,0.85697937,0.734413641,-0.261367798,0.068313126,0.986293451,1374657.853,1537498567,37.87157977,-122.2584462
848,0.329238892,0.108398248,0.912490845,0.832639542,-0.297088623,0.08826165,1.014543957,1374657.912,1537498567,37.87157977,-122.2584462
849,0.360198975,0.129743302,0.901367188,0.812462808,-0.277175903,0.076826481,1.009471441,1374657.972,1537498567,37.87157977,-122.2584462
850,0.422958374,0.178893786,0.844909668,0.713872347,-0.266571045,0.071060122,0.981746533,1374658.032,1537498567,37.87157977,-122.2584462
851,0.416107178,0.173145184,0.839050293,0.704005394,-0.243728638,0.059403649,0.967757318,1374658.091,1537498567,37.87157977,-122.2584462
852,0.442367554,0.195689053,0.866531372,0.750876619,-0.266586304,0.071068257,1.008778434,1374658.151,1537498567,37.87157977,-122.2584462
853,0.264373779,0.069893495,0.9581604,0.918071352,-0.244415283,0.059738831,1.023573973,1374658.211,1537498567,37.87157977,-122.2584462
854,0.264663696,0.070046872,0.938720703,0.881196558,-0.305114746,0.093095008,1.021928783,1374658.27,1537498567,37.87157977,-122.2584462
855,0.431976318,0.186603539,0.888534546,0.789493639,-0.222015381,0.049290829,1.012614442,1374658.33,1537498567,37.87157977,-122.2584462
856,0.628585815,0.395120127,0.697753906,0.486860513,-0.263244629,0.069297735,0.975335006,1374658.389,1537498567,37.87157977,-122.2584462
857,0.278320313,0.077462197,0.838272095,0.702700105,-0.294342041,0.086637237,0.931020697,1374658.449,1537498567,37.87157977,-122.2584462
858,0.06652832,0.004426017,1.003097534,1.006204663,-0.258255005,0.066695648,1.037943316,1374658.509,1537498568,37.87157977,-122.2584462
859,0.508285522,0.258354172,0.810195923,0.656417434,-0.35975647,0.129424718,1.021859248,1374658.568,1537498568,37.87157977,-122.2584462
860,0.597671509,0.357211233,0.820236206,0.672787434,-0.313369751,0.098200601,1.06216725,1374658.628,1537498568,37.87157977,-122.2584462
861,0.132324219,0.017509699,0.952957153,0.908127335,-0.305633545,0.093411864,1.009479518,1374658.688,1537498568,37.87157977,-122.2584462
862,0.27923584,0.077972654,0.863052368,0.74485939,-0.264907837,0.070176162,0.944991114,1374658.747,1537498568,37.87157977,-122.2584462
863,0.411010742,0.16892983,0.827896118,0.685411982,-0.265731812,0.070613396,0.961745917,1374658.807,1537498568,37.87157977,-122.2584462
864,0.480895996,0.231260959,0.788238525,0.621319972,-0.224334717,0.050326065,0.950214185,1374658.867,1537498568,37.87157977,-122.2584462
865,0.227462769,0.051739311,0.829528809,0.688118045,-0.382995605,0.146685633,0.941564119,1374658.926,1537498568,37.87157977,-122.2584462
866,0.365936279,0.13390936,0.907196045,0.823004664,-0.3074646,0.09453448,1.025401631,1374658.986,1537498568,37.87157977,-122.2584462
867,0.418807983,0.175400127,0.914215088,0.835789227,-0.273620605,0.074868235,1.042140868,1374659.046,1537498568,37.87157977,-122.2584462
