loggingSample(N),accelerometerAccelerationX(G),SQR_accelerometerAccelerationX(G),accelerometerAccelerationY(G),SQR_accelerometerAccelerationY(G),accelerometerAccelerationZ(G),SQR_accelerometerAccelerationZ(G),TOTAL_ACCELERATION,accelerometerTimestamp_sinceReboot(s),locationTimestamp_since1970(s),locationLatitude(WGS84),locationLongitude(WGS84)
6776,0.816192627,0.666170404,0.809066772,0.654589042,-0.429077148,0.184107199,1.226730062,1375011.535,1537498921,37.85971048,-122.2557858
6777,0.43359375,0.18800354,1.142242432,1.304717773,0.634963989,0.403179267,1.376917057,1375011.594,1537498921,37.85971048,-122.2557858
6778,0.068450928,0.00468553,-0.218521118,0.047751479,0.29196167,0.085241617,0.371050704,1375011.654,1537498921,37.85971048,-122.2557858
6779,0.342269897,0.117148682,0.683853149,0.467655129,-0.547210693,0.299439543,0.940342147,1375011.713,1537498921,37.85971048,-122.2557858
6780,0.191131592,0.036531285,0.729721069,0.532492839,-0.242965698,0.05903233,0.792500129,1375011.773,1537498921,37.85971048,-122.2557858
6781,-0.115081787,0.013243818,0.504592896,0.254613991,-0.46661377,0.21772841,0.696840167,1375011.833,1537498921,37.85971048,-122.2557858
6782,-0.02355957,0.000555053,0.393203735,0.154609177,-0.126724243,0.016059034,0.413791329,1375011.892,1537498921,37.85971048,-122.2557858
6783,0.392242432,0.153854125,1.120574951,1.255688221,-0.199127197,0.039651641,1.203824733,1375011.952,1537498921,37.85971048,-122.2557858
6784,0.38583374,0.148867675,1.429779053,2.04426814,0.12953186,0.016778503,1.486578057,1375012.012,1537498921,37.85971048,-122.2557858
6785,0.030990601,0.000960417,1.07093811,1.146908435,-0.153793335,0.02365239,1.082368349,1375012.071,1537498921,37.85971048,-122.2557858
6786,0.414810181,0.172067486,1.820022583,3.312482203,-0.850082397,0.722640082,2.051143528,1375012.131,1537498921,37.85971048,-122.2557858
6787,0.283676147,0.080472156,0.118927002,0.014143632,0.245758057,0.060397023,0.393716663,1375012.191,1537498921,37.85971048,-122.2557858
6788,0.541061401,0.29274744,0.440612793,0.194139633,-0.771057129,0.594529096,1.039911616,1375012.25,1537498921,37.85971048,-122.2557858
6789,0.579177856,0.335446989,1.29510498,1.677296909,-0.495910645,0.245927368,1.502887642,1375012.31,1537498921,37.85971048,-122.2557858
6790,0.436889648,0.190872565,0.793167114,0.629114071,0.332733154,0.110711352,0.964726898,1375012.37,1537498921,37.85971048,-122.2557858
6791,0.571380615,0.326475807,0.918060303,0.84283472,-0.350341797,0.122739375,1.13668373,1375012.429,1537498921,37.85971048,-122.2557858
6792,0.470657349,0.22151834,1.20211792,1.445087494,0.342880249,0.117566865,1.335729276,1375012.489,1537498921,37.85971048,-122.2557858
6793,-0.09336853,0.008717682,0.117660522,0.013843998,-0.382522583,0.146323527,0.410956454,1375012.549,1537498922,37.85964568,-122.2557793
6794,0.226455688,0.051282179,1.056884766,1.117005409,-1.026657104,1.054024809,1.49074223,1375012.608,1537498922,37.85964568,-122.2557793
6795,0.483062744,0.233349615,1.004440308,1.008900332,-0.730514526,0.533651473,1.332629513,1375012.668,1537498922,37.85964568,-122.2557793
6796,0.088058472,0.007754294,-0.055603027,0.003091697,0.194824219,0.037956476,0.220912805,1375012.728,1537498922,37.85964568,-122.2557793
6797,-0.02192688,0.000480788,0.492553711,0.242609158,-0.100463867,0.010092989,0.503172868,1375012.787,1537498922,37.85964568,-122.2557793
6798,0.182037354,0.033137598,1.818313599,3.306264344,-0.742828369,0.551793986,1.972611449,1375012.847,1537498922,37.85964568,-122.2557793
6799,0.084243774,0.007097013,1.301727295,1.694493951,-0.613327026,0.376170041,1.441444069,1375012.906,1537498922,37.85964568,-122.2557793
6800,0.731582642,0.535213162,1.17010498,1.369145664,-0.643554688,0.414162636,1.52266919,1375012.966,1537498922,37.85964568,-122.2557793
6801,0.405807495,0.164679723,0.587768555,0.345471874,-0.35887146,0.128788725,0.799337427,1375013.026,1537498922,37.85964568,-122.2557793
6802,0.477111816,0.227635685,1.336364746,1.785870734,0.167434692,0.028034376,1.42882497,1375013.085,1537498922,37.85964568,-122.2557793
6803,0.270065308,0.072935271,0.909988403,0.828078894,0.135238647,0.018289492,0.958803241,1375013.145,1537498922,37.85964568,-122.2557793
6804,0.564437866,0.318590105,0.683731079,0.467488188,-0.280410767,0.078630198,0.929897033,1375013.205,1537498922,37.85964568,-122.2557793
6805,0.617889404,0.381787316,0.536132813,0.287438393,-0.840881348,0.707081441,1.173161178,1375013.264,1537498922,37.85964568,-122.2557793
6806,0.338165283,0.114355759,0.957168579,0.916171689,-0.527389526,0.278139712,1.143969912,1375013.324,1537498922,37.85964568,-122.2557793
6807,-0.015762329,0.000248451,0.632904053,0.40056754,0.034729004,0.001206104,0.634052123,1375013.384,1537498922,37.85964568,-122.2557793
6808,0.001815796,3.30E-06,0.608551025,0.37033435,-0.156509399,0.024495192,0.628357254,1375013.443,1537498922,37.85964568,-122.2557793
6809,0.069747925,0.004864773,0.936233521,0.876533206,-0.212432861,0.04512772,0.96256205,1375013.503,1537498923,37.85959108,-122.2557738
6810,0.171585083,0.029441441,0.696426392,0.485009719,-0.414672852,0.171953574,0.828495464,1375013.563,1537498923,37.85959108,-122.2557738
6811,0.044113159,0.001945971,0.873214722,0.762503951,-0.4556427,0.20761027,0.985931129,1375013.622,1537498923,37.85959108,-122.2557738
6812,0.280700684,0.078792874,0.704940796,0.496941526,0.089431763,0.00799804,0.764023848,1375013.682,1537498923,37.85959108,-122.2557738
6813,0.66960144,0.448366088,0.918045044,0.842806703,-0.469467163,0.220399417,1.229460129,1375013.742,1537498923,37.85959108,-122.2557738
6814,0.441833496,0.195216838,0.999069214,0.998139294,-0.282974243,0.080074422,1.128463803,1375013.801,1537498923,37.85959108,-122.2557738
6815,0.49597168,0.245987907,0.835006714,0.697236212,0.122314453,0.014960825,0.978869218,1375013.861,1537498923,37.85959108,-122.2557738
6816,0.402420044,0.161941892,1.097793579,1.205150742,-0.528091431,0.278880559,1.282954868,1375013.921,1537498923,37.85959108,-122.2557738
6817,0.445755005,0.198697524,1.346893311,1.814121591,-0.647796631,0.419640475,1.559634441,1375013.98,1537498923,37.85959108,-122.2557738
6818,0.406097412,0.164915108,1.04006958,1.081744731,-0.260147095,0.067676511,1.146445093,1375014.04,1537498923,37.85959108,-122.2557738
6819,0.395935059,0.156764571,0.897109985,0.804806325,-0.176513672,0.031157076,0.996357352,1375014.099,1537498923,37.85959108,-122.2557738
6820,0.042648315,0.001818879,0.463897705,0.215201081,0.102920532,0.010592636,0.477087618,1375014.159,1537498923,37.85959108,-122.2557738
6821,-0.06842041,0.004681353,1.064712524,1.133612759,-0.126525879,0.016008798,1.074384898,1375014.219,1537498923,37.85959108,-122.2557738
6822,0.374221802,0.140041957,1.738372803,3.021940002,-0.726760864,0.528181353,1.920979779,1375014.278,1537498923,37.85959108,-122.2557738
6823,0.949935913,0.902378239,1.358291626,1.844956141,-0.393951416,0.155197718,1.703681924,1375014.338,1537498923,37.85959108,-122.2557738
6824,0.717880249,0.515352052,0.836364746,0.699505988,-0.260757446,0.067994446,1.132630781,1375014.398,1537498923,37.85959108,-122.2557738
6825,0.284881592,0.081157521,0.688751221,0.474378244,0.020736694,0.00043001,0.745631126,1375014.457,1537498923,37.85959108,-122.2557738
6826,0.200485229,0.040194327,0.803268433,0.645240175,0.095443726,0.009109505,0.833393069,1375014.517,1537498923,37.85959108,-122.2557738
6827,0.261428833,0.068345035,0.695922852,0.484308616,-0.278274536,0.077436717,0.793782318,1375014.577,1537498924,37.85950424,-122.255765
6828,0.254608154,0.064825312,0.584716797,0.341893733,-0.506835938,0.256882668,0.814617525,1375014.636,1537498924,37.85950424,-122.255765
6829,0.173416138,0.030073157,0.930404663,0.865652837,-0.571090698,0.326144585,1.105382549,1375014.696,1537498924,37.85950424,-122.255765
6830,0.375427246,0.140945617,1.198043823,1.435309002,-0.1300354,0.016909205,1.262205936,1375014.756,1537498924,37.85950424,-122.255765
6831,0.406707764,0.165411205,1.553131104,2.412216226,0.374969482,0.140602112,1.648705415,1375014.815,1537498924,37.85950424,-122.255765
6832,0.176116943,0.031017178,1.273010254,1.620555107,-0.029251099,0.000855627,1.285467974,1375014.875,1537498924,37.85950424,-122.255765
6833,0.357925415,0.128110603,0.488189697,0.23832918,-0.477264404,0.227781311,0.770857376,1375014.935,1537498924,37.85950424,-122.255765
6834,0.782562256,0.612403685,0.976272583,0.953108156,-0.599075317,0.358891235,1.387228559,1375014.994,1537498924,37.85950424,-122.255765
6835,0.450241089,0.202717038,0.95463562,0.911329167,0.186233521,0.034682924,1.071787819,1375015.054,1537498924,37.85950424,-122.255765
6836,0.442337036,0.195662053,1.232421875,1.518863678,0.035171509,0.001237035,1.309871279,1375015.113,1537498924,37.85950424,-122.255765
6837,0.857437134,0.735198439,2.386276245,5.694314317,-0.560958862,0.314674845,2.596957374,1375015.173,1537498924,37.85950424,-122.255765
6838,0.330795288,0.109425523,1.471237183,2.164538849,0.314651489,0.09900556,1.540444718,1375015.233,1537498924,37.85950424,-122.255765
6839,0.139129639,0.019357056,0.88822937,0.788951414,-0.928451538,0.862022258,1.292412755,1375015.292,1537498924,37.85950424,-122.255765
6840,0.250228882,0.062614493,0.689361572,0.475219377,-0.201644897,0.040660664,0.760588282,1375015.352,1537498924,37.85950424,-122.255765
6841,0.435577393,0.189727665,0.941207886,0.885872285,0.366836548,0.134569053,1.100076817,1375015.412,1537498924,37.85950424,-122.255765
6842,0.560897827,0.314606372,1.402999878,1.968408658,-0.466217041,0.217358329,1.581256892,1375015.471,1537498924,37.85950424,-122.255765
6843,-0.152053833,0.023120368,1.418457031,2.012020349,-0.09046936,0.008184705,1.429449342,1375015.531,1537498924,37.85950424,-122.255765
6844,0.119171143,0.014201761,0.285934448,0.081758509,0.022140503,0.000490202,0.310564763,1375015.591,1537498925,37.85940497,-122.255755
6845,0.421890259,0.177991391,0.342346191,0.117200914,-0.264846802,0.070143829,0.604430421,1375015.65,1537498925,37.85940497,-122.255755
6846,0.471374512,0.222193931,0.405441284,0.164382635,-0.223815918,0.050093565,0.660810208,1375015.71,1537498925,37.85940497,-122.255755
6847,0.140808105,0.019826922,0.121734619,0.014819317,-0.080749512,0.006520484,0.202895844,1375015.77,1537498925,37.85940497,-122.255755
6848,0.50352478,0.253537204,1.142593384,1.305519641,-0.441574097,0.194987683,1.324403461,1375015.829,1537498925,37.85940497,-122.255755
6849,0.448608398,0.201249495,0.88079834,0.775805716,-0.449523926,0.20207176,1.08587613,1375015.889,1537498925,37.85940497,-122.255755
6850,0.245941162,0.060487055,0.987487793,0.975132141,-1.053192139,1.109213682,1.464524796,1375015.949,1537498925,37.85940497,-122.255755
6851,0.265487671,0.070483703,0.762573242,0.581517949,-0.118789673,0.014110986,0.816157239,1375016.008,1537498925,37.85940497,-122.255755
6852,-0.087127686,0.007591234,0.645675659,0.416897057,-0.219711304,0.048273057,0.68757643,1375016.068,1537498925,37.85940497,-122.255755
6853,0.016616821,0.000276119,1.24382019,1.547088665,-0.200561523,0.040224925,1.259995916,1375016.128,1537498925,37.85940497,-122.255755
6854,0.105117798,0.011049751,0.806793213,0.650915289,-0.117431641,0.01379019,0.822043326,1375016.187,1537498925,37.85940497,-122.255755
6855,0.766998291,0.588286378,1.014266968,1.028737482,-0.684783936,0.468929039,1.444282832,1375016.247,1537498925,37.85940497,-122.255755
6856,0.351547241,0.123585463,0.511810303,0.261949786,-0.501724243,0.251727216,0.798287207,1375016.307,1537498925,37.85940497,-122.255755
6857,0.274124146,0.075144047,0.252716064,0.063865409,-0.037643433,0.001417028,0.374735219,1375016.366,1537498925,37.85940497,-122.255755
6858,0.336120605,0.112977061,0.62890625,0.395523071,0.276062012,0.076210234,0.764663564,1375016.426,1537498925,37.85940497,-122.255755
6859,0.193359375,0.037387848,0.480163574,0.230557058,-0.063644409,0.004050611,0.521531894,1375016.486,1537498925,37.85940497,-122.255755
6860,0.028396606,0.000806367,0.685775757,0.470288389,-0.647247314,0.418929085,0.943410749,1375016.545,1537498926,37.85932287,-122.2557467
6861,0.411621094,0.169431925,0.979125977,0.958687679,-0.629226685,0.395926221,1.234522509,1375016.605,1537498926,37.85932287,-122.2557467
6862,0.126586914,0.016024247,1.108184814,1.228073582,0.138183594,0.019094706,1.123918384,1375016.664,1537498926,37.85932287,-122.2557467
6863,-0.026046753,0.000678433,0.64074707,0.410556808,0.207794189,0.043178425,0.674102118,1375016.724,1537498926,37.85932287,-122.2557467
6864,0.173095703,0.029962122,0.53187561,0.282891665,-0.268005371,0.071826879,0.620226302,1375016.784,1537498926,37.85932287,-122.2557467
6865,0.535766602,0.287045852,0.495849609,0.245866835,-0.555892944,0.309016965,0.917567246,1375016.843,1537498926,37.85932287,-122.2557467
6866,0.494506836,0.244537011,0.634155273,0.40215291,-0.238739014,0.056996317,0.838860082,1375016.903,1537498926,37.85932287,-122.2557467
6867,0.336654663,0.113336362,0.230392456,0.053080684,-0.075759888,0.005739561,0.41491759,1375016.963,1537498926,37.85932287,-122.2557467
6868,0.456741333,0.208612645,0.844223022,0.712712511,-0.01914978,0.000366714,0.960047848,1375017.022,1537498926,37.85932287,-122.2557467
6869,0.451385498,0.203748868,0.764038086,0.583754197,-0.549728394,0.302201307,1.043889061,1375017.082,1537498926,37.85932287,-122.2557467
6870,0.229782104,0.052799815,1.362182617,1.855541482,-0.582702637,0.339542363,1.499294388,1375017.142,1537498926,37.85932287,-122.2557467
6871,0.176147461,0.031027928,1.188812256,1.41327458,-0.134307861,0.018038602,1.209272967,1375017.201,1537498926,37.85932287,-122.2557467
6872,-0.004943848,2.44E-05,1.017059326,1.034409673,-0.060638428,0.003677019,1.018877389,1375017.261,1537498926,37.85932287,-122.2557467
6873,0.022247314,0.000494943,1.028808594,1.058447123,0.001144409,1.31E-06,1.029049744,1375017.321,1537498926,37.85932287,-122.2557467
6874,0.302307129,0.0913896,0.549957275,0.302453004,-0.429916382,0.184828096,0.760704082,1375017.38,1537498926,37.85932287,-122.2557467
6875,0.46031189,0.211887036,0.445144653,0.198153762,-0.543289185,0.295163139,0.839764215,1375017.44,1537498926,37.85932287,-122.2557467
6876,0.301559448,0.090938101,1.127716064,1.271743521,-0.041168213,0.001694822,1.168065257,1375017.5,1537498926,37.85932287,-122.2557467
6877,0.356048584,0.126770594,1.169158936,1.366932618,0.043823242,0.001920477,1.222956945,1375017.559,1537498926,37.85932287,-122.2557467
6878,0.576583862,0.33244895,1.344696045,1.808207453,-0.136657715,0.018675331,1.46946648,1375017.619,1537498927,37.85922101,-122.2557364
6879,0.397705078,0.158169329,1.073501587,1.152405657,-0.787582397,0.620286032,1.389554252,1375017.679,1537498927,37.85922101,-122.2557364
6880,0.126647949,0.016039703,0.480651855,0.231026206,-0.458343506,0.210078769,0.67612475,1375017.738,1537498927,37.85922101,-122.2557364
6881,0.43371582,0.188109413,1.43963623,2.072552475,-0.178253174,0.031774194,1.514079285,1375017.798,1537498927,37.85922101,-122.2557364
6882,0.17010498,0.028935704,0.668411255,0.446773606,0.312255859,0.097503721,0.757108335,1375017.858,1537498927,37.85922101,-122.2557364
6883,-0.053741455,0.002888144,0.220306396,0.048534908,-0.178833008,0.031981245,0.288798021,1375017.917,1537498927,37.85922101,-122.2557364
6884,0.203292847,0.041327982,-0.24130249,0.058226892,-0.217300415,0.04721947,0.383111399,1375017.977,1537498927,37.85922101,-122.2557364
6885,0.57913208,0.335393966,0.875244141,0.766052306,-0.714294434,0.510216538,1.269512824,1375018.036,1537498927,37.85922101,-122.2557364
6886,0.543945313,0.295876504,1.100845337,1.211860456,0.008514404,7.25E-05,1.227928929,1375018.096,1537498927,37.85922101,-122.2557364
6887,0.533493042,0.284614826,0.99609375,0.992202759,-0.211868286,0.044888171,1.149654624,1375018.156,1537498927,37.85922101,-122.2557364
6888,0.261306763,0.068281224,0.621063232,0.385719538,-0.177032471,0.031340496,0.69666438,1375018.215,1537498927,37.85922101,-122.2557364
6889,-0.050933838,0.002594256,0.598419189,0.358105526,-0.451049805,0.203445927,0.751096338,1375018.275,1537498927,37.85922101,-122.2557364
6890,0.254196167,0.064615691,1.216278076,1.479332358,-0.235961914,0.055678025,1.264763248,1375018.335,1537498927,37.85922101,-122.2557364
6891,0.299514771,0.089709098,1.139907837,1.299389877,-0.122879028,0.015099256,1.184988705,1375018.394,1537498927,37.85922101,-122.2557364
6892,0.222717285,0.049602989,1.600418091,2.561338066,0.235671997,0.05554129,1.632936724,1375018.454,1537498927,37.85922101,-122.2557364
6893,0.243606567,0.059344159,0.970947266,0.942738593,-0.425720215,0.181237701,1.087805338,1375018.514,1537498927,37.85922101,-122.2557364
6894,0.639221191,0.408603731,0.768722534,0.590934334,-0.353286743,0.124811523,1.06035352,1375018.573,1537498927,37.85922101,-122.2557364
6895,0.653869629,0.427545492,1.151702881,1.326419526,-0.017837524,0.000318177,1.324493562,1375018.633,1537498928,37.85912386,-122.2557266
6896,0.382949829,0.146650572,0.593658447,0.352430352,0.190124512,0.03614733,0.731592956,1375018.693,1537498928,37.85912386,-122.2557266
6897,0.526000977,0.276677028,0.873245239,0.762557247,-0.32975769,0.108740134,1.071435677,1375018.752,1537498928,37.85912386,-122.2557266
6898,0.145187378,0.021079375,1.094894409,1.198793767,-0.5025177,0.252524039,1.213423743,1375018.812,1537498928,37.85912386,-122.2557266
6899,-0.120056152,0.01441348,0.655502319,0.42968329,0.011322021,0.000128188,0.666502032,1375018.872,1537498928,37.85912386,-122.2557266
6900,-0.097015381,0.009411984,0.074539185,0.00555609,0.242401123,0.058758304,0.271526018,1375018.931,1537498928,37.85912386,-122.2557266
6901,0.162948608,0.026552249,0.822433472,0.676396816,-0.654983521,0.429003413,1.063932553,1375018.991,1537498928,37.85912386,-122.2557266
6902,0.374694824,0.140396211,1.244903564,1.549784884,-0.238540649,0.056901641,1.321772573,1375019.051,1537498928,37.85912386,-122.2557266
6903,0.824142456,0.679210788,1.760787964,3.100374254,-0.417114258,0.173984304,1.988358455,1375019.11,1537498928,37.85912386,-122.2557266
6904,0.545501709,0.297572115,1.344482422,1.807632983,0.378616333,0.143350328,1.499518398,1375019.17,1537498928,37.85912386,-122.2557266
6905,0.453536987,0.205695799,0.876602173,0.76843137,-0.323959351,0.104949661,1.038786229,1375019.23,1537498928,37.85912386,-122.2557266
6906,0.309005737,0.095484545,0.466110229,0.217258746,-0.077514648,0.006008521,0.564581094,1375019.289,1537498928,37.85912386,-122.2557266
6907,0.726379395,0.527627025,2.221557617,4.935318246,-0.419677734,0.1761294,2.374673593,1375019.349,1537498928,37.85912386,-122.2557266
6908,0.067565918,0.004565153,0.52796936,0.278751645,0.124511719,0.015503168,0.546644278,1375019.409,1537498928,37.85912386,-122.2557266
6909,-0.077468872,0.006001426,0.473327637,0.224039052,0.105697632,0.011171989,0.491133859,1375019.468,1537498928,37.85912386,-122.2557266
6910,0.161849976,0.026195415,0.34538269,0.119289203,-0.101623535,0.010327343,0.394730237,1375019.528,1537498928,37.85912386,-122.2557266
6911,0.120880127,0.014612005,0.840011597,0.705619483,-0.324829102,0.105513946,0.908705361,1375019.588,1537498929,37.85901814,-122.2557174
6912,0.30418396,0.092527882,0.473724365,0.224414774,-0.208587646,0.043508806,0.6003761,1375019.647,1537498929,37.85901814,-122.2557174
6913,0.638839722,0.40811619,0.89289856,0.797267838,-0.702301025,0.49322673,1.303307622,1375019.707,1537498929,37.85901814,-122.2557174
6914,0.574279785,0.329797271,1.454971313,2.116941522,0.072662354,0.005279818,1.565892273,1375019.766,1537498929,37.85901814,-122.2557174
6915,0.577194214,0.333153161,1.37651062,1.894781487,-0.437805176,0.191673372,1.555508926,1375019.826,1537498929,37.85901814,-122.2557174
6916,0.098922729,0.009785706,0.314407349,0.098851981,-0.041015625,0.001682281,0.3321445,1375019.886,1537498929,37.85901814,-122.2557174
6917,0.400222778,0.160178272,1.284072876,1.648843151,-0.561416626,0.315188628,1.457466998,1375019.945,1537498929,37.85901814,-122.2557174
6918,0.21434021,0.045941726,0.993392944,0.986829541,-0.009368896,8.78E-05,1.01629673,1375020.005,1537498929,37.85901814,-122.2557174
6919,0.268066406,0.071859598,0.941986084,0.887337782,-0.400466919,0.160373753,1.058097885,1375020.065,1537498929,37.85901814,-122.2557174
6920,0.518203735,0.268535111,1.165939331,1.359414524,-0.293243408,0.085991696,1.309175821,1375020.124,1537498929,37.85901814,-122.2557174
6921,0.444366455,0.197461546,1.382080078,1.910145342,-0.371887207,0.138300095,1.49863504,1375020.184,1537498929,37.85901814,-122.2557174
6922,0.162582397,0.026433036,0.673690796,0.453859289,-0.085098267,0.007241715,0.698236378,1375020.244,1537498929,37.85901814,-122.2557174
6923,0.108276367,0.011723772,0.25958252,0.067383085,-0.052810669,0.002788967,0.286174463,1375020.303,1537498929,37.85901814,-122.2557174
6924,0.057785034,0.00333911,0.403945923,0.163172309,-0.268096924,0.071875961,0.488249301,1375020.363,1537498929,37.85901814,-122.2557174
6925,0.601913452,0.362299804,1.567062378,2.455684497,-0.166824341,0.027830361,1.686954256,1375020.423,1537498929,37.85901814,-122.2557174
6926,0.413360596,0.170866982,0.923156738,0.852218363,-0.397369385,0.157902428,1.086732614,1375020.482,1537498929,37.85901814,-122.2557174
6927,0.582977295,0.339862526,1.769790649,3.132158941,-0.512832642,0.262997319,1.932619669,1375020.542,1537498929,37.85901814,-122.2557174
6928,0.14781189,0.021848355,0.345153809,0.119131152,0.12387085,0.015343987,0.39537766,1375020.602,1537498930,37.85892263,-122.2557104
6929,0.414413452,0.171738509,1.32144165,1.746208034,-0.533615112,0.284745088,1.484146769,1375020.661,1537498930,37.85892263,-122.2557104
6930,0.255218506,0.065136486,0.994750977,0.989529506,-0.183685303,0.033740291,1.043267119,1375020.721,1537498930,37.85892263,-122.2557104
6931,0.11579895,0.013409397,0.703643799,0.495114596,-0.409194946,0.167440504,0.822170601,1375020.781,1537498930,37.85892263,-122.2557104
6932,0.472579956,0.223331815,0.80116272,0.641861704,-0.100112915,0.010022596,0.935529858,1375020.84,1537498930,37.85892263,-122.2557104
6933,0.398727417,0.158983553,1.135955811,1.290395605,-0.255935669,0.065503067,1.230805518,1375020.9,1537498930,37.85892263,-122.2557104
6934,0.228500366,0.052212417,0.710845947,0.50530196,0.045822144,0.002099669,0.748073557,1375020.96,1537498930,37.85892263,-122.2557104
6935,0.519470215,0.269849304,0.764419556,0.584337258,-0.278320313,0.077462197,0.965219539,1375021.019,1537498930,37.85892263,-122.2557104
6936,0.436828613,0.190819237,1.199386597,1.438528209,-0.001663208,2.77E-06,1.276460032,1375021.079,1537498930,37.85892263,-122.2557104
6937,0.303131104,0.091888466,0.75793457,0.574464812,-0.214614868,0.046059542,0.844045508,1375021.139,1537498930,37.85892263,-122.2557104
6938,0.472808838,0.223548197,0.95199585,0.906296098,-0.141448975,0.020007813,1.072311572,1375021.198,1537498930,37.85892263,-122.2557104
6939,0.300750732,0.090451003,0.752838135,0.566765258,-0.054092407,0.002925988,0.812491384,1375021.258,1537498930,37.85892263,-122.2557104
6940,0.395324707,0.156281624,1.304580688,1.701930772,-0.281356812,0.079161656,1.391895848,1375021.318,1537498930,37.85892263,-122.2557104
6941,0.15447998,0.023864064,0.876174927,0.767682503,-0.011230469,0.000126123,0.889759906,1375021.377,1537498930,37.85892263,-122.2557104
6942,0.187820435,0.035276516,1.016937256,1.034161383,-0.414001465,0.171397213,1.113927786,1375021.437,1537498930,37.85892263,-122.2557104
6943,0.211990356,0.044939911,0.918167114,0.843030849,-0.031005859,0.000961363,0.94283197,1375021.496,1537498931,37.85882796,-122.2557034
6944,0.163574219,0.026756525,0.793579102,0.629767791,-0.178421021,0.031834061,0.829673657,1375021.556,1537498931,37.85882796,-122.2557034
6945,0.203643799,0.041470797,0.7159729,0.512617194,-0.183151245,0.033544379,0.766571829,1375021.616,1537498931,37.85882796,-122.2557034
6946,0.467193604,0.218269864,0.792007446,0.627275795,0.016357422,0.000267565,0.919681044,1375021.675,1537498931,37.85882796,-122.2557034
6947,0.447753906,0.20048356,0.699188232,0.488864184,-0.504180908,0.254198388,0.971363028,1375021.735,1537498931,37.85882796,-122.2557034
6948,0.426361084,0.181783774,1.466644287,2.151045465,-0.49647522,0.246487644,1.606025181,1375021.795,1537498931,37.85882796,-122.2557034
6949,0.386444092,0.149339036,1.162948608,1.352449465,0.384140015,0.147563551,1.28427102,1375021.854,1537498931,37.85882796,-122.2557034
6950,0.442840576,0.196107776,1.090759277,1.1897558,-0.247894287,0.061451578,1.20304412,1375021.914,1537498931,37.85882796,-122.2557034
6951,0.08782959,0.007714037,0.540527344,0.29216981,-0.142532349,0.020315471,0.565861571,1375021.974,1537498931,37.85882796,-122.2557034
6952,0.288879395,0.083451305,0.724533081,0.524948185,-0.487686157,0.237837788,0.91991156,1375022.033,1537498931,37.85882796,-122.2557034
6953,0.243438721,0.059262411,0.465164185,0.216377719,0.108688354,0.011813158,0.536146704,1375022.093,1537498931,37.85882796,-122.2557034
6954,0.105422974,0.011114003,0.415115356,0.172320759,-0.208786011,0.043591598,0.476472833,1375022.153,1537498931,37.85882796,-122.2557034
6955,0.41192627,0.169683252,1.016616821,1.033509761,0.179412842,0.032188968,1.111477386,1375022.212,1537498931,37.85882796,-122.2557034
6956,0.098739624,0.009749513,0.976898193,0.954330079,0.035842896,0.001284713,0.982529545,1375022.272,1537498931,37.85882796,-122.2557034
6957,0.547119141,0.299339354,1.620239258,2.625175253,-0.182342529,0.033248798,1.719814934,1375022.332,1537498931,37.85882796,-122.2557034
6958,0.648498535,0.42055035,1.665603638,2.774235479,-0.380844116,0.145042241,1.82751965,1375022.391,1537498931,37.85882796,-122.2557034
6959,0.396148682,0.156933778,0.944046021,0.89122289,-0.329498291,0.108569124,1.075511874,1375022.451,1537498931,37.85882796,-122.2557034
6960,0.278778076,0.077717216,1.025665283,1.051989273,-0.497283936,0.247291313,1.173455496,1375022.511,1537498931,37.85882796,-122.2557034
6961,0.337936401,0.114201011,0.821838379,0.675418321,0.136795044,0.018712884,0.899072976,1375022.57,1537498932,37.8587363,-122.2556966
6962,0.460250854,0.211830849,1.17388916,1.37801576,-0.105941772,0.011223659,1.265334054,1375022.63,1537498932,37.8587363,-122.2556966
6963,0.216003418,0.046657477,0.623291016,0.388491691,0.115997314,0.013455377,0.669779474,1375022.69,1537498932,37.8587363,-122.2556966
6964,0.487686157,0.237837788,1.394058228,1.943398343,-0.796783447,0.634863861,1.67812395,1375022.749,1537498932,37.8587363,-122.2556966
6965,0.365402222,0.133518784,1.057037354,1.117327968,-0.133850098,0.017915849,1.126393626,1375022.809,1537498932,37.8587363,-122.2556966
6966,0.315109253,0.099293841,1.137969971,1.294975655,-0.363220215,0.131928925,1.235394035,1375022.869,1537498932,37.8587363,-122.2556966
6967,0.077850342,0.006060676,0.054046631,0.002921038,0.619293213,0.383524084,0.626502831,1375022.928,1537498932,37.8587363,-122.2556966
6968,0.053222656,0.002832651,-0.258132935,0.066632612,-0.152023315,0.023111088,0.304263622,1375022.988,1537498932,37.8587363,-122.2556966
6969,0.201004028,0.040402619,0.500473022,0.250473246,-0.038162231,0.001456356,0.540677557,1375023.047,1537498932,37.8587363,-122.2556966
6970,0.057754517,0.003335584,0.38949585,0.151707017,0.013458252,0.000181125,0.393984423,1375023.107,1537498932,37.8587363,-122.2556966
6971,0.382095337,0.145996847,0.89881897,0.807875541,-0.322555542,0.104042078,1.02854969,1375023.167,1537498932,37.8587363,-122.2556966
6972,0.975296021,0.951202329,3.142700195,9.876564516,-1.384780884,1.917618097,3.570067918,1375023.226,1537498932,37.8587363,-122.2556966
6973,0.09576416,0.009170774,0.493927002,0.243963883,0.041641235,0.001733992,0.504845174,1375023.286,1537498932,37.8587363,-122.2556966
6974,0.393722534,0.155017434,1.12109375,1.256851196,-0.494506836,0.244537011,1.287014235,1375023.346,1537498932,37.8587363,-122.2556966
6975,0.637954712,0.406986215,1.536010742,2.359329,-0.506622314,0.256666169,1.738672305,1375023.405,1537498932,37.8587363,-122.2556966
6976,0.209472656,0.043878794,0.85635376,0.733341762,0.332626343,0.110640284,0.942263679,1375023.465,1537498932,37.8587363,-122.2556966
6977,0.324066162,0.105018877,0.665847778,0.443353263,-0.037826538,0.001430847,0.741487011,1375023.525,1537498933,37.85863446,-122.2556891
6978,0.277069092,0.076767282,0.737625122,0.544090821,-0.625320435,0.391025646,1.005924326,1375023.584,1537498933,37.85863446,-122.2556891
6979,0.218841553,0.047891625,0.43145752,0.186155592,0.145050049,0.021039517,0.505061119,1375023.644,1537498933,37.85863446,-122.2556891
6980,0.130279541,0.016972759,0.056488037,0.003190898,-0.475479126,0.226080399,0.496229842,1375023.704,1537498933,37.85863446,-122.2556891
6981,0.096298218,0.009273347,0.476318359,0.226879179,0.053619385,0.002875038,0.488904453,1375023.763,1537498933,37.85863446,-122.2556891
6982,0.338424683,0.114531266,1.126449585,1.268888668,0.137741089,0.018972608,1.184226558,1375023.823,1537498933,37.85863446,-122.2556891
6983,0.200302124,0.040120941,0.588241577,0.346028153,-0.222015381,0.049290829,0.659878719,1375023.883,1537498933,37.85863446,-122.2556891
6984,0.597290039,0.356755391,1.345672607,1.810834765,-0.455230713,0.207235002,1.541046773,1375023.942,1537498933,37.85863446,-122.2556891
6985,0.522720337,0.273236551,1.365615845,1.864906636,-0.321640015,0.103452299,1.497195874,1375024.002,1537498933,37.85863446,-122.2556891
6986,0.362182617,0.131176248,1.12260437,1.260240572,-0.253433228,0.064228401,1.206501231,1375024.062,1537498933,37.85863446,-122.2556891
6987,0.246932983,0.060975898,0.929458618,0.863893323,-0.29335022,0.086054352,1.005446951,1375024.121,1537498933,37.85863446,-122.2556891
6988,0.439849854,0.193467894,1.144012451,1.308764488,-0.076446533,0.005844072,1.228037644,1375024.181,1537498933,37.85863446,-122.2556891
6989,0.316131592,0.099939183,0.994873047,0.98977238,0.035507202,0.001260761,1.044496206,1375024.241,1537498933,37.85863446,-122.2556891
6990,0.243377686,0.059232698,0.662628174,0.439076097,-0.05166626,0.002669402,0.707798133,1375024.3,1537498933,37.85863446,-122.2556891
6991,0.322525024,0.104022391,0.941360474,0.886159542,-0.4140625,0.171447754,1.077789259,1375024.36,1537498933,37.85863446,-122.2556891
6992,0.257080078,0.066090167,0.630264282,0.397233065,-0.350585938,0.1229105,0.765659018,1375024.419,1537498933,37.85863446,-122.2556891
6993,0.276077271,0.07621866,0.682128906,0.465299844,-0.149917603,0.022475288,0.750995201,1375024.479,1537498933,37.85863446,-122.2556891
6994,0.394439697,0.155582675,1.022766113,1.046050522,-0.065002441,0.004225317,1.098115893,1375024.539,1537498933,37.85863446,-122.2556891
6995,0.322341919,0.103904313,0.923934937,0.853655768,-0.031295776,0.000979426,0.979050308,1375024.598,1537498934,37.85854663,-122.255681
6996,0.245162964,0.060104879,0.804443359,0.647129118,-0.198654175,0.039463481,0.864116588,1375024.658,1537498934,37.85854663,-122.255681
6997,0.355865479,0.126640239,0.986251831,0.972692674,0.020935059,0.000438277,1.048699762,1375024.718,1537498934,37.85854663,-122.255681
6998,0.161651611,0.026131243,0.527618408,0.278381184,-0.469482422,0.220413745,0.72451789,1375024.777,1537498934,37.85854663,-122.255681
6999,0.494049072,0.244084486,1.113586426,1.240074728,-0.499176025,0.249176704,1.316562159,1375024.837,1537498934,37.85854663,-122.255681
7000,0.259643555,0.067414776,0.771789551,0.595659111,-0.150894165,0.022769049,0.828156347,1375024.897,1537498934,37.85854663,-122.255681
7001,0.199813843,0.039925572,0.532028198,0.283054003,-0.322113037,0.103756809,0.653250629,1375024.956,1537498934,37.85854663,-122.255681
7002,0.093856812,0.008809101,0.306838989,0.094150165,0.088821411,0.007889243,0.332939198,1375025.016,1537498934,37.85854663,-122.255681
7003,0.207199097,0.042931466,0.558868408,0.312333897,-0.003158569,9.98E-06,0.59604978,1375025.076,1537498934,37.85854663,-122.255681
7004,0.265762329,0.070629616,0.684234619,0.468177014,-0.303787231,0.092286682,0.794413816,1375025.135,1537498934,37.85854663,-122.255681
7005,0.312362671,0.097570438,1.023345947,1.047236927,0.398849487,0.159080913,1.141879275,1375025.195,1537498934,37.85854663,-122.255681
7006,0.330444336,0.109193459,0.968399048,0.937796716,0.134185791,0.018005827,1.031986435,1375025.255,1537498934,37.85854663,-122.255681
7007,0.403030396,0.1624335,0.933120728,0.870714293,-0.390914917,0.152814472,1.089018946,1375025.314,1537498934,37.85854663,-122.255681
7008,0.365737915,0.133764222,0.808532715,0.653725151,-0.41557312,0.172701018,0.979893051,1375025.374,1537498934,37.85854663,-122.255681
7009,0.395233154,0.156209246,0.874710083,0.765117729,-0.596496582,0.355808172,1.130104043,1375025.434,1537498934,37.85854663,-122.255681
7010,0.343551636,0.118027727,0.884124756,0.781676584,-0.288421631,0.083187037,0.991408769,1375025.493,1537498934,37.85854663,-122.255681
7011,0.25100708,0.063004554,0.910049438,0.82818998,0.112319946,0.01261577,0.950689384,1375025.553,1537498935,37.85845545,-122.2556712
7012,0.402053833,0.161647285,1.366592407,1.867574807,-0.377990723,0.142876987,1.473804288,1375025.613,1537498935,37.85845545,-122.2556712
7013,0.523101807,0.2736355,1.566696167,2.45453688,0.136062622,0.018513037,1.65731271,1375025.672,1537498935,37.85845545,-122.2556712
7014,0.026809692,0.00071876,-0.062789917,0.003942574,0.022598267,0.000510682,0.071916722,1375025.732,1537498935,37.85845545,-122.2556712
7015,0.172744751,0.029840749,0.38381958,0.14731747,-0.193511963,0.03744688,0.463254896,1375025.792,1537498935,37.85845545,-122.2556712
7016,0.014434814,0.000208364,0.107772827,0.011614982,0.111953735,0.012533639,0.156067245,1375025.851,1537498935,37.85845545,-122.2556712
7017,0.246856689,0.060938225,0.776794434,0.603409593,0.112335205,0.012619198,0.822780053,1375025.911,1537498935,37.85845545,-122.2556712
7018,0.278244019,0.077419734,0.697525024,0.486541159,-0.64616394,0.417527837,0.990701131,1375025.971,1537498935,37.85845545,-122.2556712
7019,0.511810303,0.261949786,1.353561401,1.832128466,-0.284713745,0.081061917,1.474835641,1375026.03,1537498935,37.85845545,-122.2556712
7020,0.464920044,0.216150647,1.650878906,2.725401162,0.032608032,0.001063284,1.715405227,1375026.09,1537498935,37.85845545,-122.2556712
7021,0.164779663,0.027152337,0.351989746,0.123896781,-0.042770386,0.001829306,0.390996707,1375026.15,1537498935,37.85845545,-122.2556712
7022,0.443252563,0.196472835,1.10319519,1.217039627,-0.634994507,0.403218024,1.347861449,1375026.209,1537498935,37.85845545,-122.2556712
7023,0.056762695,0.003222004,0.352539063,0.124283791,0.066482544,0.004419929,0.363215808,1375026.269,1537498935,37.85845545,-122.2556712
7024,-0.039489746,0.00155944,-0.063522339,0.004035088,0.265136719,0.07029748,0.27548504,1375026.329,1537498935,37.85845545,-122.2556712
7025,0.389144897,0.151433751,1.012619019,1.025397278,-0.335601807,0.112628573,1.135543747,1375026.388,1537498935,37.85845545,-122.2556712
7026,0.355239868,0.126195364,1.104019165,1.218858317,0.072647095,0.0052776,1.162037556,1375026.448,1537498935,37.85845545,-122.2556712
7027,0.475952148,0.226530447,0.936187744,0.876447492,0.152084351,0.02312965,1.061182166,1375026.508,1537498935,37.85845545,-122.2556712
7028,0.425247192,0.180835174,0.985015869,0.970256262,0.125,0.015625,1.080146488,1375026.567,1537498936,37.85836393,-122.2556613
7029,0.419662476,0.176116594,1.183822632,1.401436024,0.016052246,0.000257675,1.256109188,1375026.627,1537498936,37.85836393,-122.2556613
7030,0.152481079,0.023250479,0.656661987,0.431204965,-0.017486572,0.00030578,0.674359863,1375026.687,1537498936,37.85836393,-122.2556613
7031,0.427062988,0.182382796,1.252410889,1.568533035,-0.330963135,0.109536597,1.363984028,1375026.746,1537498936,37.85836393,-122.2556613
7032,0.493591309,0.24363238,1.219741821,1.48777011,-0.129211426,0.016695593,1.322156603,1375026.806,1537498936,37.85836393,-122.2556613
7033,0.26071167,0.067970575,0.779937744,0.608302885,-0.075653076,0.005723388,0.825831004,1375026.866,1537498936,37.85836393,-122.2556613
7034,0.3984375,0.158752441,1.233505249,1.521535199,-0.324768066,0.105474297,1.336324039,1375026.925,1537498936,37.85836393,-122.2556613
7035,0.439041138,0.192757121,1.133010864,1.283713618,0.251190186,0.06309651,1.240792992,1375026.985,1537498936,37.85836393,-122.2556613
7036,0.373764038,0.139699556,0.642166138,0.412377349,0.13218689,0.017473374,0.75468555,1375027.045,1537498936,37.85836393,-122.2556613
7037,0.551391602,0.304032699,1.269561768,1.611787083,-0.277175903,0.076826481,1.411611229,1375027.104,1537498936,37.85836393,-122.2556613
7038,0.374923706,0.140567785,1.288467407,1.660148259,-0.196990967,0.038805441,1.356289602,1375027.164,1537498936,37.85836393,-122.2556613
7039,0.188949585,0.035701946,0.866012573,0.749977777,0.257781982,0.06645155,0.923109567,1375027.224,1537498936,37.85836393,-122.2556613
7040,0.607177734,0.368664801,1.61227417,2.599427999,-0.050674438,0.002567899,1.723560471,1375027.283,1537498936,37.85836393,-122.2556613
7041,0.390701294,0.152647501,1.090270996,1.188690845,0.10043335,0.010086858,1.162508152,1375027.343,1537498936,37.85836393,-122.2556613
7042,0.427001953,0.182330668,1.109222412,1.230374359,0.189956665,0.036083535,1.20365633,1375027.402,1537498936,37.85836393,-122.2556613
7043,0.234466553,0.054974564,0.709472656,0.50335145,-0.119918823,0.014380524,0.756773769,1375027.462,1537498936,37.85836393,-122.2556613
7044,0.346160889,0.119827361,0.924377441,0.854473653,-0.11151123,0.012434754,0.993345745,1375027.522,1537498936,37.85836393,-122.2556613
7045,0.332946777,0.110853556,1.0365448,1.074425122,0.036392212,0.001324393,1.089313119,1375027.581,1537498937,37.85831085,-122.2556556
7046,0.252380371,0.063695852,0.967666626,0.936378699,-0.409194946,0.167440504,1.080516106,1375027.641,1537498937,37.85831085,-122.2556556
7047,0.234680176,0.055074785,0.926376343,0.858173129,0.521606445,0.272073283,1.088724574,1375027.701,1537498937,37.85831085,-122.2556556
7048,0.723358154,0.523247019,1.971481323,3.886738607,-0.2394104,0.05731734,2.113599528,1375027.76,1537498937,37.85831085,-122.2556556
7049,-0.095535278,0.009126989,-0.145965576,0.021305949,0.375106812,0.14070512,0.41368836,1375027.82,1537498937,37.85831085,-122.2556556
7050,0.607162476,0.368646272,1.168182373,1.364650057,-0.042236328,0.001783907,1.317224444,1375027.88,1537498937,37.85831085,-122.2556556
7051,0.547149658,0.299372748,1.478408813,2.185692618,-0.059127808,0.003496098,1.5775175,1375027.939,1537498937,37.85831085,-122.2556556
7052,0.137863159,0.019006251,0.325286865,0.105811545,0.099258423,0.009852235,0.366974154,1375027.999,1537498937,37.85831085,-122.2556556
7053,0.184158325,0.033914289,0.348724365,0.121608683,0.173599243,0.030136697,0.43088243,1375028.059,1537498937,37.85831085,-122.2556556
7054,0.126968384,0.016120971,0.123168945,0.015170589,0.234039307,0.054774397,0.29337,1375028.118,1537498937,37.85831085,-122.2556556
7055,0.640579224,0.410341742,1.625442505,2.642063337,-0.083129883,0.006910577,1.749089951,1375028.178,1537498937,37.85831085,-122.2556556
7056,0.406219482,0.165014268,0.937759399,0.87939269,0.177444458,0.031486536,1.037252859,1375028.238,1537498937,37.85831085,-122.2556556
7057,0.308395386,0.095107714,1.010559082,1.021229658,-0.36340332,0.132061973,1.117317925,1375028.297,1537498937,37.85831085,-122.2556556
7058,0.330596924,0.109294326,1.14074707,1.301303878,-0.123504639,0.015253396,1.194090281,1375028.357,1537498937,37.85831085,-122.2556556
7059,0.256484985,0.065784548,1.060058594,1.123724223,-0.080917358,0.006547619,1.09364363,1375028.417,1537498937,37.85831085,-122.2556556
7060,0.256896973,0.065996055,0.891372681,0.794545256,-0.141113281,0.019912958,0.938325247,1375028.476,1537498937,37.85831085,-122.2556556
7061,0.406585693,0.165311926,1.221420288,1.49186752,-0.361602783,0.130756573,1.337137247,1375028.536,1537498938,37.85824036,-122.2556636
7062,0.259368896,0.067272224,0.674240112,0.454599729,-0.161636353,0.026126311,0.740269048,1375028.595,1537498938,37.85824036,-122.2556636
7063,0.372955322,0.139095672,1.068862915,1.142467931,-0.222198486,0.049372167,1.153661896,1375028.655,1537498938,37.85824036,-122.2556636
7064,0.548965454,0.30136307,1.371398926,1.880735014,-0.606491089,0.367831441,1.596849876,1375028.715,1537498938,37.85824036,-122.2556636
7065,0.235198975,0.055318558,0.514144897,0.264344975,0.0443573,0.00196757,0.567125297,1375028.774,1537498938,37.85824036,-122.2556636
7066,0.208877563,0.043629836,0.650909424,0.423683078,-0.44493103,0.197963621,0.815644859,1375028.834,1537498938,37.85824036,-122.2556636
7067,0.65852356,0.433653279,1.678146362,2.816175212,-0.398376465,0.158703808,1.846221086,1375028.894,1537498938,37.85824036,-122.2556636
7068,0.43460083,0.188877881,0.968002319,0.93702849,0.156097412,0.024366402,1.072507703,1375028.953,1537498938,37.85824036,-122.2556636
7069,0.718688965,0.516513828,1.659072876,2.752522808,-0.595596313,0.354734968,1.903620657,1375029.013,1537498938,37.85824036,-122.2556636
7070,0.45880127,0.210498605,1.273086548,1.620749359,-0.097717285,0.009548668,1.356759607,1375029.073,1537498938,37.85824036,-122.2556636
7071,0.230957031,0.05334115,0.753250122,0.567385746,-0.016738892,0.000280191,0.788040029,1375029.132,1537498938,37.85824036,-122.2556636
7072,0.428497314,0.183609948,1.465667725,2.14818188,-0.881851196,0.777661532,1.763364217,1375029.192,1537498938,37.85824036,-122.2556636
7073,-0.024703979,0.000610287,0.440689087,0.194206871,-0.14956665,0.022370183,0.466033626,1375029.252,1537498938,37.85824036,-122.2556636
7074,0.27532959,0.075806383,0.984588623,0.969414757,0.089279175,0.007970771,1.026251388,1375029.311,1537498938,37.85824036,-122.2556636
7075,0.827941895,0.685487781,2.590789795,6.712191762,-0.003143311,9.88E-06,2.719869376,1375029.371,1537498938,37.85824036,-122.2556636
7076,-0.14465332,0.020924583,-0.266143799,0.070832522,0.369216919,0.136321133,0.477575374,1375029.431,1537498938,37.85824036,-122.2556636
7077,0.466934204,0.218027551,0.678848267,0.46083497,-0.436172485,0.190246437,0.932260134,1375029.49,1537498938,37.85824036,-122.2556636
7078,0.325271606,0.105801618,0.613357544,0.376207477,-0.371444702,0.137971167,0.787388253,1375029.55,1537498938,37.85824036,-122.2556636
7079,0.291931152,0.085223798,0.893569946,0.798467248,-0.167663574,0.028111074,0.954883302,1375029.61,1537498939,37.85820283,-122.2556729
7080,0.374160767,0.13999628,0.823013306,0.677350902,-0.08531189,0.007278119,0.908088817,1375029.669,1537498939,37.85820283,-122.2556729
7081,0.42829895,0.183439991,0.88067627,0.775590693,-0.392974854,0.154429236,1.055206103,1375029.729,1537498939,37.85820283,-122.2556729
7082,0.497589111,0.247594923,1.379562378,1.903192355,-0.176437378,0.031130148,1.477131486,1375029.789,1537498939,37.85820283,-122.2556729
7083,0.279891968,0.078339514,0.634338379,0.402385179,-0.018096924,0.000327499,0.693579261,1375029.848,1537498939,37.85820283,-122.2556729
7084,0.116043091,0.013465999,0.351913452,0.123843078,0.075775146,0.005741873,0.378220768,1375029.908,1537498939,37.85820283,-122.2556729
7085,0.190185547,0.036170542,0.665100098,0.44235814,-0.135040283,0.018235878,0.704815267,1375029.968,1537498939,37.85820283,-122.2556729
7086,0.204360962,0.041763403,0.957672119,0.917135888,-0.54119873,0.292896065,1.118836608,1375030.027,1537498939,37.85820283,-122.2556729
7087,0.230285645,0.053031478,0.973266602,0.947247879,-0.042724609,0.001825392,1.001051821,1375030.087,1537498939,37.85820283,-122.2556729
7088,0.018386841,0.000338076,0.200180054,0.040072054,-0.218719482,0.047838212,0.297066225,1375030.146,1537498939,37.85820283,-122.2556729
7089,0.481613159,0.231951235,1.358184814,1.844665989,-0.7862854,0.61824473,1.64160347,1375030.206,1537498939,37.85820283,-122.2556729
7090,0.066604614,0.004436175,0.558837891,0.312299788,0.196060181,0.038439595,0.595966071,1375030.266,1537498939,37.85820283,-122.2556729
7091,0.568313599,0.322980347,1.941604614,3.769828477,-0.371261597,0.137835173,2.056852935,1375030.325,1537498939,37.85820283,-122.2556729
7092,0.145874023,0.021279231,0.617980957,0.381900463,-0.335525513,0.11257737,0.718162282,1375030.385,1537498939,37.85820283,-122.2556729
7093,0.104202271,0.010858113,0.053161621,0.002826158,-0.359298706,0.12909556,0.377862186,1375030.445,1537498939,37.85820283,-122.2556729
7094,-0.06036377,0.003643785,-0.198242188,0.039299965,0.18019104,0.032468811,0.274613475,1375030.504,1537498939,37.85820283,-122.2556729
7095,0.801635742,0.642619863,1.766326904,3.119910732,-0.306518555,0.093953625,1.963793324,1375030.564,1537498940,37.85815985,-122.2556836
7096,0.2162323,0.046756408,0.019226074,0.000369642,0.169235229,0.028640563,0.275257356,1375030.624,1537498940,37.85815985,-122.2556836
7097,0.621734619,0.386553936,1.862060547,3.467269481,-0.506698608,0.256743479,2.027453303,1375030.683,1537498940,37.85815985,-122.2556836
7098,0.224136353,0.050237105,0.247924805,0.061466709,0.143859863,0.02069566,0.363867385,1375030.743,1537498940,37.85815985,-122.2556836
7099,0.762069702,0.580750231,2.512374878,6.312027528,-0.442733765,0.196013187,2.662478346,1375030.803,1537498940,37.85815985,-122.2556836
7100,0.232574463,0.054090881,1.671585083,2.79419669,-0.769439697,0.592037447,1.854811316,1375030.862,1537498940,37.85815985,-122.2556836
7101,0.385177612,0.148361793,1.577850342,2.489611702,-0.588485718,0.34631544,1.72750946,1375030.922,1537498940,37.85815985,-122.2556836
7102,0.038665771,0.001495042,-0.265625,0.070556641,-0.057800293,0.003340874,0.27457705,1375030.982,1537498940,37.85815985,-122.2556836
7103,-0.007247925,5.25E-05,0.14251709,0.020311121,0.23500061,0.055225287,0.274934429,1375031.041,1537498940,37.85815985,-122.2556836
7104,0.011962891,0.000143111,0.054412842,0.002960757,0.118179321,0.013966352,0.130653052,1375031.101,1537498940,37.85815985,-122.2556836
7105,-0.173812866,0.030210912,0.446853638,0.199678174,-0.413543701,0.171018393,0.633172551,1375031.161,1537498940,37.85815985,-122.2556836
7106,0.24937439,0.062187586,1.105438232,1.221993685,-0.921707153,0.849544076,1.460727677,1375031.22,1537498940,37.85815985,-122.2556836
7107,0.275512695,0.075907245,0.690383911,0.476629945,-0.53604126,0.287340232,0.916448265,1375031.28,1537498940,37.85815985,-122.2556836
7108,0.67414856,0.454476281,1.255783081,1.576991147,-0.727813721,0.529712812,1.600368782,1375031.34,1537498940,37.85815985,-122.2556836
7109,0.669876099,0.448733988,1.066589355,1.137612852,-0.030334473,0.00092018,1.259867858,1375031.399,1537498940,37.85815985,-122.2556836
7110,0.48046875,0.23085022,0.970367432,0.941612953,-0.064498901,0.004160108,1.084722675,1375031.459,1537498940,37.85815985,-122.2556836
7111,0.646469116,0.417922318,1.232177734,1.518261968,-0.012481689,0.000155793,1.391524372,1375031.518,1537498940,37.85815985,-122.2556836
7112,0.204299927,0.04173846,0.63659668,0.405255333,-0.111618042,0.012458587,0.677829168,1375031.578,1537498941,37.85810897,-122.2556967
7113,0.214080811,0.045830594,1.062561035,1.129035953,-0.574478149,0.330025144,1.22674027,1375031.638,1537498941,37.85810897,-122.2556967
7114,0.055023193,0.003027552,0.395965576,0.156788737,-0.576187134,0.331991613,0.70129017,1375031.697,1537498941,37.85810897,-122.2556967
7115,0.177688599,0.031573238,0.827728271,0.685134091,-0.731323242,0.534833684,1.118722938,1375031.757,1537498941,37.85810897,-122.2556967
7116,0.519638062,0.270023715,1.892044067,3.579830751,-0.05090332,0.002591148,1.962764788,1375031.817,1537498941,37.85810897,-122.2556967
7117,-0.140960693,0.019869917,-0.043029785,0.001851562,0.95741272,0.916639116,0.968690144,1375031.876,1537498941,37.85810897,-122.2556967
7118,-0.059295654,0.003515975,0.15927124,0.025367328,-0.710357666,0.504608014,0.730404899,1375031.936,1537498941,37.85810897,-122.2556967
7119,0.140808105,0.019826922,1.148330688,1.318663369,-0.049407959,0.002441146,1.15798594,1375031.996,1537498941,37.85810897,-122.2556967
7120,0.535995483,0.287291158,0.98614502,0.972482,-0.534545898,0.285739317,1.24318642,1375032.055,1537498941,37.85810897,-122.2556967
7121,0.631210327,0.398426477,0.359832764,0.129479618,-0.036254883,0.001314417,0.727475437,1375032.115,1537498941,37.85810897,-122.2556967
7122,0.617477417,0.381278361,0.972015381,0.944813901,-0.690628052,0.476967106,1.342780461,1375032.175,1537498941,37.85810897,-122.2556967
7123,0.175857544,0.030925876,0.24005127,0.057624612,-0.181503296,0.032943446,0.3485598,1375032.234,1537498941,37.85810897,-122.2556967
7124,0.299743652,0.089846257,0.7472229,0.558342062,-0.029266357,0.00085652,0.805633191,1375032.294,1537498941,37.85810897,-122.2556967
7125,0.70489502,0.496876989,4.233337402,17.92114556,-1.236602783,1.529186443,4.466229841,1375032.354,1537498941,37.85810897,-122.2556967
7126,-0.021636963,0.000468158,0.480819702,0.231187586,-0.042449951,0.001801998,0.48317465,1375032.413,1537498941,37.85810897,-122.2556967
7127,0.221130371,0.048898641,0.910049438,0.82818998,0.003250122,1.06E-05,0.936535736,1375032.473,1537498941,37.85810897,-122.2556967
7128,0.019256592,0.000370816,0.792617798,0.628242974,-0.028900146,0.000835218,0.793378225,1375032.533,1537498941,37.85810897,-122.2556967
7129,0.271377563,0.073645782,1.234558105,1.524133715,-0.262359619,0.06883257,1.290973302,1375032.592,1537498942,37.85805909,-122.2557451
7130,0.333999634,0.111555756,0.463592529,0.214918033,-0.143936157,0.020717617,0.589229502,1375032.652,1537498942,37.85805909,-122.2557451
7131,0.513687134,0.263874472,0.62272644,0.387788219,-0.611373901,0.373778047,1.012640478,1375032.712,1537498942,37.85805909,-122.2557451
7132,0.422515869,0.17851966,0.89125061,0.79432765,-0.16343689,0.026711617,0.999779439,1375032.771,1537498942,37.85805909,-122.2557451
7133,0.265640259,0.070564747,0.847717285,0.718624595,-0.016662598,0.000277642,0.888519547,1375032.831,1537498942,37.85805909,-122.2557451
7134,0.479049683,0.229488599,0.937026978,0.878019557,-0.300094604,0.090056771,1.094333097,1375032.89,1537498942,37.85805909,-122.2557451
7135,0.310440063,0.096373033,0.684783936,0.468929039,-0.358505249,0.128526014,0.832963436,1375032.95,1537498942,37.85805909,-122.2557451
7136,-0.025100708,0.000630046,0.662261963,0.438590908,-0.311981201,0.09733227,0.732497934,1375033.01,1537498942,37.85805909,-122.2557451
7137,-0.007324219,5.36E-05,0.649246216,0.421520649,-0.147705078,0.02181679,0.665876177,1375033.069,1537498942,37.85805909,-122.2557451
7138,0.147674561,0.021807776,0.915588379,0.83830208,-0.0574646,0.00330218,0.929199675,1375033.129,1537498942,37.85805909,-122.2557451
7139,0.161590576,0.026111514,1.085906982,1.179193974,-0.264297485,0.069853161,1.129229228,1375033.189,1537498942,37.85805909,-122.2557451
7140,0.504760742,0.254783407,1.4659729,2.149076544,-0.433883667,0.188255036,1.610004654,1375033.248,1537498942,37.85805909,-122.2557451
7141,0.517547607,0.267855526,0.835662842,0.698332385,-0.161026001,0.025929373,0.996050844,1375033.308,1537498942,37.85805909,-122.2557451
7142,0.501083374,0.251084548,0.929672241,0.864290476,-0.339645386,0.115358988,1.109384519,1375033.368,1537498942,37.85805909,-122.2557451
7143,0.535446167,0.286702598,1.209960938,1.464005471,-0.058532715,0.003426079,1.324437295,1375033.427,1537498942,37.85805909,-122.2557451
7144,0.420654297,0.176950038,0.777236938,0.604097258,0.025650024,0.000657924,0.88414095,1375033.487,1537498942,37.85805909,-122.2557451
7145,0.093856812,0.008809101,0.518478394,0.268819845,-0.258453369,0.066798144,0.58687911,1375033.547,1537498943,37.85797732,-122.2557467
7146,0.079986572,0.006397852,1.079223633,1.16472365,-0.239227295,0.057229699,1.108310065,1375033.606,1537498943,37.85797732,-122.2557467
7147,0.345962524,0.119690068,0.543716431,0.295627557,0.008956909,8.02E-05,0.644513655,1375033.666,1537498943,37.85797732,-122.2557467
7148,0.377151489,0.142243246,1.095825195,1.200832858,-0.643859863,0.414555523,1.325757001,1375033.726,1537498943,37.85797732,-122.2557467
7149,0.456512451,0.208403618,1.819885254,3.311982338,0.307556152,0.094590787,1.901309218,1375033.785,1537498943,37.85797732,-122.2557467
7150,0.442489624,0.195797067,0.386657715,0.149504189,0.095489502,0.009118245,0.595331421,1375033.845,1537498943,37.85797732,-122.2557467
7151,0.575134277,0.330779437,1.093841553,1.196489343,-0.83972168,0.7051325,1.494122244,1375033.904,1537498943,37.85797732,-122.2557467
7152,0.358139038,0.128263571,1.114212036,1.241468461,0.112640381,0.012687855,1.175763534,1375033.964,1537498943,37.85797732,-122.2557467
7153,0.245101929,0.060074956,0.618209839,0.382183405,-0.184921265,0.034195874,0.690256644,1375034.024,1537498943,37.85797732,-122.2557467
7154,0.300476074,0.090285871,0.751205444,0.564309619,0.161117554,0.025958866,0.824957185,1375034.083,1537498943,37.85797732,-122.2557467
7155,0.124069214,0.01539317,0.807998657,0.65286183,0.019744873,0.00038986,0.817707074,1375034.143,1537498943,37.85797732,-122.2557467
7156,0.348693848,0.1215874,1.173171997,1.376332535,-0.560775757,0.31446945,1.346250119,1375034.203,1537498943,37.85797732,-122.2557467
7157,0.354598999,0.12574045,0.664840698,0.442013154,-0.038986206,0.001519924,0.754502172,1375034.262,1537498943,37.85797732,-122.2557467
7158,0.550125122,0.30263765,1.157073975,1.338820184,-0.477645874,0.228145581,1.367334419,1375034.322,1537498943,37.85797732,-122.2557467
7159,0.496170044,0.246184713,1.237976074,1.53258476,-0.124710083,0.015552605,1.339523078,1375034.382,1537498943,37.85797732,-122.2557467
7160,0.323303223,0.104524974,1.040649414,1.082951203,-0.414413452,0.171738509,1.16585363,1375034.441,1537498943,37.85797732,-122.2557467
7161,0.319900513,0.102336338,0.937850952,0.879564408,-0.193313599,0.037370148,1.009589468,1375034.501,1537498943,37.85797732,-122.2557467
7162,0.230834961,0.053284779,0.619247437,0.383467388,0.139556885,0.019476124,0.675446735,1375034.561,1537498944,37.85790084,-122.2557419
7163,0.337783813,0.114097904,0.64163208,0.411691726,-0.275283813,0.075781178,0.775609959,1375034.62,1537498944,37.85790084,-122.2557419
7164,0.391937256,0.153614813,0.679122925,0.461207947,-0.281723022,0.079367861,0.833181025,1375034.68,1537498944,37.85790084,-122.2557419
7165,0.278503418,0.077564154,0.705871582,0.49825469,-0.325027466,0.105642854,0.825506934,1375034.74,1537498944,37.85790084,-122.2557419
7166,0.199035645,0.039615188,0.716720581,0.513688391,-0.3565979,0.127162062,0.824903413,1375034.799,1537498944,37.85790084,-122.2557419
7167,0.429107666,0.184133389,1.193878174,1.425345094,-0.072982788,0.005326487,1.270749767,1375034.859,1537498944,37.85790084,-122.2557419
7168,0.391708374,0.15343545,1.085372925,1.178034386,0.048721313,0.002373766,1.15492147,1375034.918,1537498944,37.85790084,-122.2557419
7169,0.364593506,0.132928425,1.24029541,1.538332704,-0.430404663,0.185248174,1.362537817,1375034.978,1537498944,37.85790084,-122.2557419
7170,0.072845459,0.005306461,0.646148682,0.417508119,-0.041290283,0.001704887,0.651551585,1375035.038,1537498944,37.85790084,-122.2557419
7171,0.283538818,0.080394261,1.033218384,1.067540229,-0.357559204,0.127848584,1.129505677,1375035.097,1537498944,37.85790084,-122.2557419
7172,0.519302368,0.269674949,0.50894165,0.259021603,-0.324493408,0.105295972,0.796236475,1375035.157,1537498944,37.85790084,-122.2557419
7173,0.361282349,0.130524936,0.838317871,0.702776853,-0.35446167,0.125643075,0.979257302,1375035.217,1537498944,37.85790084,-122.2557419
7174,0.516235352,0.266498939,0.907821655,0.824140157,0.180221558,0.03247981,1.059773045,1375035.276,1537498944,37.85790084,-122.2557419
7175,0.532562256,0.283622557,0.993087769,0.986223317,-0.344833374,0.118910056,1.178454891,1375035.336,1537498944,37.85790084,-122.2557419
7176,0.220397949,0.048575256,1.287734985,1.658261392,-0.472457886,0.223216454,1.38926351,1375035.396,1537498944,37.85790084,-122.2557419
7177,0.201873779,0.040753023,1.427459717,2.037641244,-0.091796875,0.008426666,1.444583308,1375035.455,1537498944,37.85790084,-122.2557419
7178,0.154830933,0.023972618,1.019363403,1.039101747,-0.220718384,0.048716605,1.05441499,1375035.515,1537498944,37.85790084,-122.2557419
7179,0.076034546,0.005781252,0.735809326,0.541415364,0.115036011,0.013233284,0.748618661,1375035.575,1537498945,37.85784657,-122.255734
7180,0.274307251,0.075244468,0.733032227,0.537336246,-0.391281128,0.153100921,0.875032362,1375035.634,1537498945,37.85784657,-122.255734
7181,0.687515259,0.472677231,0.779251099,0.607232275,-0.501464844,0.25146699,1.153852892,1375035.694,1537498945,37.85784657,-122.255734
7182,0.334228516,0.111708701,0.474975586,0.225601807,-0.054779053,0.003000745,0.583362026,1375035.754,1537498945,37.85784657,-122.255734
7183,0.471679688,0.222481728,0.99710083,0.994210065,-0.155853271,0.024290242,1.113993732,1375035.813,1537498945,37.85784657,-122.255734
7184,0.48866272,0.238791254,0.996917725,0.99384495,-0.227859497,0.05191995,1.133382616,1375035.873,1537498945,37.85784657,-122.255734
7185,0.302963257,0.091786735,1.071350098,1.147791032,-0.31892395,0.101712486,1.158140861,1375035.932,1537498945,37.85784657,-122.255734
7186,0.147689819,0.021812283,1.144332886,1.309497754,-0.326126099,0.106358232,1.199028052,1375035.992,1537498945,37.85784657,-122.255734
7187,0.035446167,0.001256431,0.681777954,0.464821179,0.113952637,0.012985203,0.692143636,1375036.052,1537498945,37.85784657,-122.255734
7188,0.377838135,0.142761656,1.194046021,1.4257459,-0.057693481,0.003328538,1.253728876,1375036.111,1537498945,37.85784657,-122.255734
7189,0.75718689,0.573331986,2.900253296,8.411469181,-1.013473511,1.027128557,3.164163353,1375036.171,1537498945,37.85784657,-122.255734
7190,0.408279419,0.166692084,0.595977783,0.355189518,0.142974854,0.020441809,0.736426107,1375036.231,1537498945,37.85784657,-122.255734
7191,0.491638184,0.241708104,0.488571167,0.238701785,0.04069519,0.001656098,0.69430972,1375036.29,1537498945,37.85784657,-122.255734
7192,0.449783325,0.202305039,1.211883545,1.468661727,-0.029449463,0.000867271,1.292994214,1375036.35,1537498945,37.85784657,-122.255734
7193,0.335006714,0.112229498,0.882720947,0.77919627,-0.056655884,0.003209889,0.945851816,1375036.41,1537498945,37.85784657,-122.255734
7194,0.280960083,0.078938568,0.870407104,0.757608527,-0.041931152,0.001758222,0.915590147,1375036.469,1537498945,37.85784657,-122.255734
7195,0.166397095,0.027687993,0.314208984,0.098727286,-0.247253418,0.061134253,0.433069892,1375036.529,1537498946,37.85778961,-122.2557294
7196,0.039962769,0.001597023,0.403793335,0.163049057,-0.191345215,0.036612991,0.448619072,1375036.589,1537498946,37.85778961,-122.2557294
7197,0.060089111,0.003610701,0.33454895,0.111923,-0.426422119,0.181835824,0.545315986,1375036.648,1537498946,37.85778961,-122.2557294
7198,0.731292725,0.53478905,1.625442505,2.642063337,-0.706863403,0.499655871,1.917422295,1375036.708,1537498946,37.85778961,-122.2557294
7199,0.193756104,0.037541428,0.911087036,0.830079587,-0.24899292,0.061997474,0.964167252,1375036.768,1537498946,37.85778961,-122.2557294
7200,-0.104537964,0.010928186,-0.035446167,0.001256431,-0.012985229,0.000168616,0.111145098,1375036.827,1537498946,37.85778961,-122.2557294
7201,0.169296265,0.028661225,0.44102478,0.194502857,-0.054580688,0.002979052,0.475545091,1375036.887,1537498946,37.85778961,-122.2557294
7202,0.785018921,0.616254706,2.171890259,4.717107297,-0.763839722,0.583451121,2.432450025,1375036.947,1537498946,37.85778961,-122.2557294
7203,0.456069946,0.207999796,0.90071106,0.811280414,-0.015579224,0.000242712,1.009714277,1375037.006,1537498946,37.85778961,-122.2557294
7204,0.471038818,0.221877568,1.122451782,1.259898003,-0.287643433,0.082738745,1.250805467,1375037.066,1537498946,37.85778961,-122.2557294
7205,0.179290771,0.032145181,0.376998901,0.142128171,0.146392822,0.021430858,0.442384686,1375037.125,1537498946,37.85778961,-122.2557294
7206,0.345962524,0.119690068,0.732681274,0.536821849,0.001358032,1.84E-06,0.810255368,1375037.185,1537498946,37.85778961,-122.2557294
7207,0.366195679,0.134099275,0.737915039,0.544518605,-0.276779175,0.076606712,0.869036588,1375037.245,1537498946,37.85778961,-122.2557294
7208,0.092071533,0.008477167,0.968536377,0.938062714,-0.345794678,0.119573959,1.032527888,1375037.304,1537498946,37.85778961,-122.2557294
7209,0.189422607,0.035880924,0.995513916,0.991047957,-0.479614258,0.230029836,1.121141703,1375037.364,1537498946,37.85778961,-122.2557294
7210,0.300231934,0.090139214,1.417144775,2.008299313,-0.093521118,0.0087462,1.451614524,1375037.424,1537498946,37.85778961,-122.2557294
7211,0.026306152,0.000692014,0.13722229,0.018829957,-0.02192688,0.000480788,0.141431109,1375037.483,1537498946,37.85778961,-122.2557294
7212,0.357727051,0.127968643,1.257675171,1.581746836,-0.636947632,0.405702286,1.454447581,1375037.543,1537498947,37.85771531,-122.2557163
7213,0.204391479,0.041775877,0.639724731,0.409247731,-0.267944336,0.071794167,0.723061391,1375037.603,1537498947,37.85771531,-122.2557163
7214,0.606643677,0.368016551,0.988601685,0.977333292,-0.420791626,0.177065593,1.233862,1375037.662,1537498947,37.85771531,-122.2557163
7215,0.51612854,0.26638867,1.40171814,1.964813744,-0.425872803,0.181367644,1.553245009,1375037.722,1537498947,37.85771531,-122.2557163
7216,0.445709229,0.198656717,0.949707031,0.901943445,-0.056381226,0.003178843,1.050608873,1375037.782,1537498947,37.85771531,-122.2557163
7217,0.249420166,0.062210419,0.460144043,0.21173254,0.040405273,0.001632586,0.524952898,1375037.841,1537498947,37.85771531,-122.2557163
7218,0.222839355,0.049657378,0.819534302,0.671636472,-0.342926025,0.117598259,0.915910535,1375037.901,1537498947,37.85771531,-122.2557163
7219,0.487472534,0.237629471,1.339355469,1.793873072,-0.469268799,0.220213206,1.500571807,1375037.961,1537498947,37.85771531,-122.2557163
7220,0.076919556,0.005916618,0.469863892,0.220772077,-0.228775024,0.052338012,0.528229786,1375038.02,1537498947,37.85771531,-122.2557163
7221,0.129257202,0.016707424,0.73600769,0.54170732,-0.80166626,0.642668792,1.095939568,1375038.08,1537498947,37.85771531,-122.2557163
7222,0.290039063,0.084122658,1.163299561,1.353265869,0.052215576,0.002726466,1.200047913,1375038.139,1537498947,37.85771531,-122.2557163
7223,0.078186035,0.006113056,0.027481079,0.00075521,0.268447876,0.072064262,0.280949333,1375038.199,1537498947,37.85771531,-122.2557163
7224,0.570388794,0.325343376,1.670715332,2.791289721,-0.827285767,0.68440174,1.949624281,1375038.259,1537498947,37.85771531,-122.2557163
7225,0.847854614,0.718857446,2.116973877,4.481578396,-1.036972046,1.075311024,2.505144081,1375038.318,1537498947,37.85771531,-122.2557163
7226,0.594100952,0.352955941,1.230056763,1.51303964,-0.163513184,0.026736561,1.37576602,1375038.378,1537498947,37.85771531,-122.2557163
7227,0.153869629,0.023675863,0.671936035,0.451498035,0.019256592,0.000370816,0.689597502,1375038.438,1537498947,37.85771531,-122.2557163
7228,0.293563843,0.08617973,0.9637146,0.92874583,-0.051605225,0.002663099,1.008755996,1375038.497,1537498947,37.85771531,-122.2557163
7229,0.396957397,0.157575175,0.82484436,0.680368218,-0.453887939,0.206014261,1.02174246,1375038.557,1537498948,37.85762428,-122.2556854
7230,0.21975708,0.048293174,0.764984131,0.585200721,-0.158859253,0.025236262,0.81162193,1375038.617,1537498948,37.85762428,-122.2556854
7231,0.360565186,0.130007253,0.783111572,0.613263734,-0.104492188,0.010918617,0.868440905,1375038.676,1537498948,37.85762428,-122.2556854
7232,0.368087769,0.135488606,1.186782837,1.408453502,-0.260452271,0.067835385,1.269557991,1375038.736,1537498948,37.85762428,-122.2556854
7233,0.468582153,0.219569234,1.254379272,1.573467358,-0.626556396,0.392572917,1.478380705,1375038.796,1537498948,37.85762428,-122.2556854
7234,0.33984375,0.115493774,0.941986084,0.887337782,0.045166016,0.002039969,1.002432804,1375038.855,1537498948,37.85762428,-122.2556854
7235,0.083480835,0.00696905,0.849075317,0.720928894,-0.220046997,0.048420681,0.881089453,1375038.915,1537498948,37.85762428,-122.2556854
7236,0.071731567,0.005145418,0.781234741,0.610327721,-0.083587646,0.006986895,0.788961363,1375038.975,1537498948,37.85762428,-122.2556854
7237,0.220581055,0.048656002,0.725311279,0.526076451,-0.179290771,0.032145181,0.779023513,1375039.034,1537498948,37.85762428,-122.2556854
7238,0.392089844,0.153734446,0.664978027,0.442195776,-0.342605591,0.117378591,0.844576114,1375039.094,1537498948,37.85762428,-122.2556854
7239,0.374725342,0.140419082,0.671524048,0.450944547,-0.322372437,0.103923988,0.833839083,1375039.154,1537498948,37.85762428,-122.2556854
7240,0.473251343,0.223966834,1.121307373,1.257330225,0.003997803,1.60E-05,1.217092043,1375039.213,1537498948,37.85762428,-122.2556854
7241,0.441833496,0.195216838,0.676391602,0.457505599,-0.258499146,0.066821808,0.848259539,1375039.273,1537498948,37.85762428,-122.2556854
7242,0.143875122,0.020700051,0.744873047,0.554835856,-0.157241821,0.02472499,0.774765059,1375039.332,1537498948,37.85762428,-122.2556854
7243,0.209671021,0.043961937,1.104721069,1.22040864,-0.128204346,0.016436354,1.13172741,1375039.392,1537498948,37.85762428,-122.2556854
7244,0.180374146,0.032534833,0.808761597,0.654095321,-0.21043396,0.044282452,0.854934269,1375039.452,1537498948,37.85762428,-122.2556854
7245,0.124893188,0.015598308,0.56590271,0.320245877,-0.215881348,0.046604756,0.618424565,1375039.511,1537498948,37.85762428,-122.2556854
7246,0.215927124,0.046624523,0.681533813,0.464488338,-0.380004883,0.144403711,0.809639779,1375039.571,1537498949,37.85755127,-122.2556802
7247,0.331542969,0.10992074,0.991424561,0.98292266,-0.014831543,0.000219975,1.045496712,1375039.631,1537498949,37.85755127,-122.2556802
7248,0.294189453,0.086547434,0.977920532,0.956328567,-0.082763672,0.006849825,1.024561285,1375039.69,1537498949,37.85755127,-122.2556802
7249,0.421264648,0.177463904,1.029174805,1.059200779,-0.4506073,0.203046939,1.199879836,1375039.75,1537498949,37.85755127,-122.2556802
7250,0.234390259,0.054938794,0.512771606,0.26293472,-0.392578125,0.154117584,0.687016083,1375039.81,1537498949,37.85755127,-122.2556802
7251,0.530593872,0.281529857,1.268005371,1.607837621,-0.216598511,0.046914915,1.391503645,1375039.869,1537498949,37.85755127,-122.2556802
7252,0.540634155,0.29228529,1.238616943,1.534171931,-0.369598389,0.136602969,1.401092499,1375039.929,1537498949,37.85755127,-122.2556802
7253,0.406951904,0.165609852,0.92565918,0.856844918,-0.209991455,0.044096411,1.032739648,1375039.989,1537498949,37.85755127,-122.2556802
7254,0.26071167,0.067970575,0.977340698,0.95519484,-0.1431427,0.020489833,1.021594463,1375040.048,1537498949,37.85755127,-122.2556802
7255,0.338272095,0.11442801,1.267196655,1.605787362,-0.220443726,0.048595436,1.329966469,1375040.108,1537498949,37.85755127,-122.2556802
7256,0.261398315,0.068329079,0.992248535,0.984557155,-0.465789795,0.216960133,1.126874601,1375040.168,1537498949,37.85755127,-122.2556802
7257,0.178817749,0.031975787,0.717468262,0.514760707,-0.059036255,0.003485279,0.741769353,1375040.227,1537498949,37.85755127,-122.2556802
7258,0.185577393,0.034438969,0.670318604,0.449327031,-0.01361084,0.000185255,0.695666051,1375040.287,1537498949,37.85755127,-122.2556802
7259,0.512924194,0.263091229,1.782546997,3.177473797,-0.368270874,0.135623437,1.891081294,1375040.347,1537498949,37.85755127,-122.2556802
7260,0.508926392,0.259006072,1.53968811,2.370639476,-0.266647339,0.071100803,1.643394764,1375040.406,1537498949,37.85755127,-122.2556802
7261,0.616073608,0.37954669,1.2940979,1.674689375,-0.490127563,0.240225028,1.514747865,1375040.466,1537498949,37.85755127,-122.2556802
7262,0.377197266,0.142277777,1.219482422,1.487137378,-0.272094727,0.07403554,1.305163092,1375040.526,1537498949,37.85755127,-122.2556802
7263,0.447189331,0.199978298,1.384033203,1.915547907,-0.079620361,0.006339402,1.456662489,1375040.585,1537498950,37.85747357,-122.2556645
7264,0.294281006,0.08660131,0.463882446,0.215186924,-0.117172241,0.013729334,0.561709505,1375040.645,1537498950,37.85747357,-122.2556645
7265,0.334442139,0.111851544,1.129608154,1.276014582,-0.451934814,0.204245076,1.26178889,1375040.705,1537498950,37.85747357,-122.2556645
7266,0.032073975,0.00102874,0.139831543,0.01955286,-0.083190918,0.006920729,0.165838262,1375040.764,1537498950,37.85747357,-122.2556645
7267,0.258056641,0.06659323,1.000518799,1.001037867,0.047042847,0.002213029,1.034332696,1375040.824,1537498950,37.85747357,-122.2556645
7268,0.387695313,0.150307656,0.847991943,0.719090335,-0.005874634,3.45E-05,0.932433645,1375040.884,1537498950,37.85747357,-122.2556645
7269,0.455245972,0.207248895,1.315444946,1.730395406,-0.390228271,0.152278103,1.445656392,1375040.943,1537498950,37.85747357,-122.2556645
7270,0.432037354,0.186656275,1.028701782,1.058227356,-0.255096436,0.065074192,1.144533889,1375041.003,1537498950,37.85747357,-122.2556645
7271,0.1434021,0.020564162,0.483764648,0.234028235,0.063400269,0.004019594,0.508539075,1375041.063,1537498950,37.85747357,-122.2556645
7272,0.419662476,0.176116594,1.074630737,1.154831221,-0.449066162,0.201660418,1.237985554,1375041.122,1537498950,37.85747357,-122.2556645
7273,0.274429321,0.075311452,0.824310303,0.679487476,-0.32649231,0.106597228,0.928114301,1375041.182,1537498950,37.85747357,-122.2556645
7274,0.393859863,0.155125592,1.389801025,1.931546889,-0.128936768,0.01662469,1.45027486,1375041.241,1537498950,37.85747357,-122.2556645
7275,0.148101807,0.021934145,0.43371582,0.188109413,0.042816162,0.001833224,0.460300751,1375041.301,1537498950,37.85747357,-122.2556645
7276,0.279678345,0.078219977,0.574188232,0.329692126,-0.327163696,0.107036084,0.717598904,1375041.361,1537498950,37.85747357,-122.2556645
7277,0.246368408,0.060697392,0.805450439,0.64875041,-0.026367188,0.000695229,0.842699846,1375041.42,1537498950,37.85747357,-122.2556645
7278,0.250259399,0.062629767,0.727554321,0.52933529,-0.091690063,0.008407068,0.774836837,1375041.48,1537498950,37.85747357,-122.2556645
7279,0.204299927,0.04173846,0.486190796,0.23638149,-0.223556519,0.049977517,0.572797929,1375041.54,1537498951,37.85741264,-122.2556666
7280,0.269134521,0.07243339,0.698471069,0.487861834,-0.290023804,0.084113807,0.802750915,1375041.599,1537498951,37.85741264,-122.2556666
7281,0.361022949,0.13033757,1.162078857,1.35042727,0.015716553,0.00024701,1.216968303,1375041.659,1537498951,37.85741264,-122.2556666
7282,0.349609375,0.122226715,0.992797852,0.985647575,0.187332153,0.035093336,1.06909664,1375041.719,1537498951,37.85741264,-122.2556666
7283,0.328765869,0.108086997,0.810592651,0.657060446,-0.0703125,0.004943848,0.877548455,1375041.778,1537498951,37.85741264,-122.2556666
7284,0.396865845,0.157502499,0.683685303,0.467425594,0.031585693,0.000997656,0.791154693,1375041.838,1537498951,37.85741264,-122.2556666
7285,0.340957642,0.116252114,0.830047607,0.68897903,-0.104797363,0.010982487,0.903445422,1375041.898,1537498951,37.85741264,-122.2556666
7286,0.419876099,0.176295939,1.154846191,1.333669725,-0.236846924,0.056096465,1.25142404,1375041.957,1537498951,37.85741264,-122.2556666
7287,0.171356201,0.029362948,0.527526855,0.278284583,0.107452393,0.011546017,0.564972165,1375042.017,1537498951,37.85741264,-122.2556666
7288,0.284622192,0.081009792,0.70916748,0.502918515,-0.06942749,0.004820176,0.767299474,1375042.077,1537498951,37.85741264,-122.2556666
7289,0.39994812,0.159958499,1.244781494,1.549480968,0.058425903,0.003413586,1.30876012,1375042.136,1537498951,37.85741264,-122.2556666
7290,0.469177246,0.220127288,1.301010132,1.692627364,0.08001709,0.006402735,1.385336561,1375042.196,1537498951,37.85741264,-122.2556666
7291,0.267944336,0.071794167,0.764892578,0.585060656,-0.094955444,0.009016536,0.816009411,1375042.256,1537498951,37.85741264,-122.2556666
7292,0.555740356,0.308847343,1.498687744,2.246064954,-0.045257568,0.002048247,1.599049888,1375042.315,1537498951,37.85741264,-122.2556666
7293,0.324539185,0.105325683,1.12121582,1.257124915,0.102081299,0.010420592,1.17169586,1375042.375,1537498951,37.85741264,-122.2556666
7294,0.411560059,0.169381682,1.358657837,1.845951118,-0.385574341,0.148667572,1.471054171,1375042.435,1537498951,37.85741264,-122.2556666
7295,0.442810059,0.196080748,1.449203491,2.100190758,0.071731567,0.005145418,1.517042163,1375042.494,1537498951,37.85741264,-122.2556666
7296,0.135772705,0.018434227,0.358184814,0.128296361,0.081390381,0.006624394,0.391605647,1375042.554,1537498951,37.85741264,-122.2556666
7297,0.235061646,0.055253977,0.589706421,0.347753663,0.057617188,0.00331974,0.637438139,1375042.614,1537498952,37.85731503,-122.2556519
7298,0.283370972,0.080299108,0.809799194,0.655774735,-0.331588745,0.109951096,0.919796139,1375042.673,1537498952,37.85731503,-122.2556519
7299,0.117034912,0.013697171,0.41242981,0.170098348,0.255554199,0.065307949,0.499102662,1375042.733,1537498952,37.85731503,-122.2556519
7300,0.002487183,6.19E-06,0.061065674,0.003729017,0.197296143,0.038925768,0.206545324,1375042.793,1537498952,37.85731503,-122.2556519
7301,0.469070435,0.220027073,1.072769165,1.150833681,-0.77986145,0.608183881,1.406785213,1375042.852,1537498952,37.85731503,-122.2556519
7302,0.392456055,0.154021755,1.130050659,1.277014492,-0.131729126,0.017352563,1.203490262,1375042.912,1537498952,37.85731503,-122.2556519
7303,0.21661377,0.046921525,0.79006958,0.624209941,0.238464355,0.056865249,0.853227235,1375042.972,1537498952,37.85731503,-122.2556519
7304,0.448379517,0.201044191,1.22177124,1.492724963,-0.197174072,0.038877615,1.31630041,1375043.031,1537498952,37.85731503,-122.2556519
7305,0.458679199,0.210386608,1.312423706,1.722455984,-0.068893433,0.004746305,1.391973023,1375043.091,1537498952,37.85731503,-122.2556519
7306,0.272659302,0.074343095,1.000686646,1.001373763,0.114883423,0.013198201,1.043510929,1375043.151,1537498952,37.85731503,-122.2556519
7307,0.343811035,0.118206028,0.96496582,0.931159034,-0.011123657,0.000123736,1.024445605,1375043.21,1537498952,37.85731503,-122.2556519
7308,0.306732178,0.094084629,0.794662476,0.631488451,-0.414001465,0.171397213,0.947085156,1375043.27,1537498952,37.85731503,-122.2556519
7309,0.359924316,0.129545513,1.146560669,1.314601368,-0.094863892,0.008999158,1.205465072,1375043.33,1537498952,37.85731503,-122.2556519
7310,0.295455933,0.087294208,0.833023071,0.693927437,-0.007705688,5.94E-05,0.883901025,1375043.389,1537498952,37.85731503,-122.2556519
7311,0.268035889,0.071843238,1.00378418,1.00758268,0.202575684,0.041036908,1.058519166,1375043.449,1537498953,37.85723314,-122.2556411
7312,0.225646973,0.050916556,0.533462524,0.284582265,0.044647217,0.001993374,0.580940784,1375043.509,1537498953,37.85723314,-122.2556411
7313,0.113723755,0.012933092,0.265319824,0.070394609,0.034545898,0.001193419,0.290725163,1375043.568,1537498953,37.85723314,-122.2556411
7314,0.227874756,0.051926904,0.61328125,0.376113892,-0.265609741,0.070548535,0.706108583,1375043.628,1537498953,37.85723314,-122.2556411
7315,0.234939575,0.055196604,0.568725586,0.323448792,0.018188477,0.000330821,0.615610442,1375043.687,1537498953,37.85723314,-122.2556411
7316,0.466934204,0.218027551,1.277740479,1.632620732,0.046310425,0.002144655,1.361173368,1375043.747,1537498953,37.85723314,-122.2556411
7317,0.383911133,0.147387758,1.092346191,1.193220201,-0.251327515,0.06316552,1.184809469,1375043.807,1537498953,37.85723314,-122.2556411
7318,0.439834595,0.193454471,1.333984375,1.779514313,-0.645843506,0.417113834,1.545989204,1375043.866,1537498953,37.85723314,-122.2556411
7319,0.34765625,0.120864868,0.980926514,0.962216826,0.300552368,0.090331726,1.083242087,1375043.926,1537498953,37.85723314,-122.2556411
7320,0.162597656,0.026437998,0.486038208,0.23623314,0.193649292,0.037500048,0.547878806,1375043.986,1537498953,37.85723314,-122.2556411
7321,0.234283447,0.054888734,0.786010742,0.617812887,0.001693726,2.87E-06,0.820185643,1375044.045,1537498953,37.85723314,-122.2556411
7322,0.452926636,0.205142538,1.098144531,1.205921411,-0.290115356,0.08416692,1.222796332,1375044.105,1537498953,37.85723314,-122.2556411
7323,0.410964966,0.168892203,1.108200073,1.228107402,-0.235351563,0.055390358,1.205151428,1375044.165,1537498953,37.85723314,-122.2556411
7324,0.34513855,0.119120619,0.815689087,0.665348687,0.224304199,0.050312374,0.913663876,1375044.224,1537498953,37.85723314,-122.2556411
7325,0.266952515,0.071263645,0.833999634,0.69555539,-0.081039429,0.006567389,0.879423916,1375044.284,1537498953,37.85723314,-122.2556411
7326,0.352142334,0.124004223,0.771179199,0.594717357,-0.002685547,7.21E-06,0.84777874,1375044.344,1537498953,37.85723314,-122.2556411
7327,0.293869019,0.086359,0.908615112,0.825581422,-0.042007446,0.001764626,0.955879201,1375044.403,1537498953,37.85723314,-122.2556411
7328,0.384460449,0.147809837,0.876556396,0.768351115,-0.101608276,0.010324242,0.962541009,1375044.463,1537498953,37.85723314,-122.2556411
7329,0.25428772,0.064662245,0.732208252,0.536128924,-0.029830933,0.000889885,0.775681026,1375044.523,1537498953,37.85723314,-122.2556411
7330,0.566162109,0.320539534,1.575057983,2.48080765,-0.184432983,0.034015525,1.683853529,1375044.582,1537498954,37.85713721,-122.2556196
7331,0.152099609,0.023134291,0.532302856,0.283346331,-0.009429932,8.89E-05,0.553687227,1375044.642,1537498954,37.85713721,-122.2556196
7332,0.262084961,0.068688527,0.891021729,0.793919722,-0.005004883,2.50E-05,0.928780543,1375044.702,1537498954,37.85713721,-122.2556196
7333,0.229415894,0.052631652,0.680328369,0.46284669,0.191390991,0.036630511,0.743040277,1375044.761,1537498954,37.85713721,-122.2556196
7334,0.370986938,0.137631308,1.029067993,1.058980934,-0.358718872,0.128679229,1.151213043,1375044.821,1537498954,37.85713721,-122.2556196
7335,0.582214355,0.338973555,1.596923828,2.550165712,-0.098632813,0.009728432,1.702606149,1375044.881,1537498954,37.85713721,-122.2556196
7336,0.48274231,0.233040138,1.25944519,1.586202187,-0.184738159,0.034128187,1.361385512,1375044.94,1537498954,37.85713721,-122.2556196
7337,0.385498047,0.148608744,1.026306152,1.053304318,-0.011947632,0.000142746,1.096383057,1375045,1537498954,37.85713721,-122.2556196
7338,0.216751099,0.046981039,0.528274536,0.279073985,0.152984619,0.023404294,0.591150842,1375045.06,1537498954,37.85713721,-122.2556196
7339,0.457382202,0.209198479,1.037628174,1.076672227,-0.514221191,0.264423433,1.245108083,1375045.119,1537498954,37.85713721,-122.2556196
7340,0.280548096,0.078707234,1.261566162,1.591549181,-0.068786621,0.004731599,1.29421328,1375045.179,1537498954,37.85713721,-122.2556196
7341,0.197418213,0.038973951,0.919509888,0.845498434,0.355331421,0.126260419,1.005352079,1375045.238,1537498954,37.85713721,-122.2556196
7342,0.29145813,0.084947842,0.940658569,0.884838543,-0.081741333,0.006681646,0.988163969,1375045.298,1537498954,37.85713721,-122.2556196
7343,0.387573242,0.150213018,0.925842285,0.857183937,-0.183609009,0.033712268,1.020347599,1375045.358,1537498954,37.85713721,-122.2556196
7344,0.47253418,0.223288551,1.048721313,1.099816392,-0.348770142,0.121640612,1.201975688,1375045.417,1537498954,37.85713721,-122.2556196
7345,0.308700562,0.095296037,0.828125,0.685791016,-0.06590271,0.004343167,0.886245011,1375045.477,1537498954,37.85713721,-122.2556196
7346,0.352966309,0.124585215,0.685531616,0.469953597,0.141311646,0.019968981,0.783905475,1375045.537,1537498954,37.85713721,-122.2556196
7347,0.402893066,0.162322823,0.926864624,0.859078031,-0.31010437,0.09616472,1.057149741,1375045.596,1537498955,37.85707275,-122.2556104
7348,0.232299805,0.053963199,0.917129517,0.841126551,0.283432007,0.080333703,0.987635283,1375045.656,1537498955,37.85707275,-122.2556104
7349,0.393783569,0.155065499,1.616851807,2.614209766,-0.264007568,0.069699996,1.684925892,1375045.716,1537498955,37.85707275,-122.2556104
7350,0.357925415,0.128110603,1.392242432,1.938338989,-0.180175781,0.032463312,1.448762542,1375045.775,1537498955,37.85707275,-122.2556104
7351,0.200820923,0.040329043,0.455673218,0.207638082,-0.282897949,0.08003125,0.572711423,1375045.835,1537498955,37.85707275,-122.2556104
7352,0.178421021,0.031834061,0.365081787,0.133284711,0.019088745,0.00036438,0.406796205,1375045.895,1537498955,37.85707275,-122.2556104
7353,0.331329346,0.109779136,0.616027832,0.37949029,-0.414505005,0.171814399,0.813070615,1375045.954,1537498955,37.85707275,-122.2556104
7354,0.298843384,0.089307368,0.893310547,0.798003733,-0.47869873,0.229152474,1.0566284,1375046.014,1537498955,37.85707275,-122.2556104
7355,0.428222656,0.183374643,1.604415894,2.574150361,0.06539917,0.004277051,1.661867039,1375046.074,1537498955,37.85707275,-122.2556104
7356,0.478256226,0.228729018,1.404342651,1.972178281,-0.445983887,0.198901627,1.549131669,1375046.133,1537498955,37.85707275,-122.2556104
7357,0.397293091,0.1578418,0.930938721,0.866646902,-0.025634766,0.000657141,1.012494861,1375046.193,1537498955,37.85707275,-122.2556104
7358,0.342666626,0.117420417,1.00012207,1.000244155,-0.179077148,0.032068625,1.072256124,1375046.253,1537498955,37.85707275,-122.2556104
7359,0.147994995,0.021902519,0.495025635,0.245050379,-0.221496582,0.049060736,0.562150899,1375046.312,1537498955,37.85707275,-122.2556104
7360,0.184417725,0.034009897,0.615158081,0.378419465,-0.177459717,0.031491951,0.666274203,1375046.372,1537498955,37.85707275,-122.2556104
7361,0.265609741,0.070548535,0.866424561,0.75069152,-0.040405273,0.001632586,0.907123277,1375046.432,1537498955,37.85707275,-122.2556104
7362,0.479019165,0.22945936,1.250778198,1.564446101,-0.201187134,0.040476263,1.354393489,1375046.491,1537498955,37.85707275,-122.2556104
7363,0.477859497,0.228349699,1.438873291,2.070356348,-0.198928833,0.039572681,1.529143135,1375046.551,1537498956,37.85700054,-122.2555953
7364,0.205871582,0.042383108,0.560409546,0.314058859,0.174072266,0.030301154,0.621886743,1375046.61,1537498956,37.85700054,-122.2555953
7365,0.311340332,0.096932802,0.728912354,0.53131322,0.075592041,0.005714157,0.796216163,1375046.67,1537498956,37.85700054,-122.2555953
7366,0.442169189,0.195513592,0.9712677,0.943360945,0.205108643,0.042069555,1.086712516,1375046.73,1537498956,37.85700054,-122.2555953
7367,0.174072266,0.030301154,0.599411011,0.35929356,-0.133300781,0.017769098,0.638250587,1375046.789,1537498956,37.85700054,-122.2555953
7368,0.11265564,0.012691293,0.70451355,0.496339342,0.358398438,0.12844944,0.798423494,1375046.849,1537498956,37.85700054,-122.2555953
7369,0.259979248,0.067589209,0.619476318,0.383750909,-0.175415039,0.030770436,0.694341813,1375046.909,1537498956,37.85700054,-122.2555953
7370,0.436645508,0.1906593,1.09161377,1.191620623,0.148727417,0.022119845,1.185073739,1375046.968,1537498956,37.85700054,-122.2555953
7371,0.497390747,0.247397555,1.336303711,1.785707608,-0.001968384,3.87E-06,1.425871326,1375047.028,1537498956,37.85700054,-122.2555953
7372,0.255584717,0.065323548,0.481323242,0.231672063,0.021347046,0.000455696,0.545390967,1375047.088,1537498956,37.85700054,-122.2555953
7373,0.342453003,0.117274059,0.799926758,0.639882818,-0.391082764,0.152945728,0.95399298,1375047.147,1537498956,37.85700054,-122.2555953
7374,0.399047852,0.159239188,1.075363159,1.156405924,-0.487472534,0.237629471,1.24630437,1375047.207,1537498956,37.85700054,-122.2555953
7375,0.51411438,0.264313596,1.608718872,2.587976409,0.050720215,0.00257254,1.689633849,1375047.267,1537498956,37.85700054,-122.2555953
7376,0.142593384,0.020332873,0.629516602,0.396291152,0.146652222,0.021506874,0.661914571,1375047.326,1537498956,37.85700054,-122.2555953
7377,0.316238403,0.100006728,0.920928955,0.84811014,0.006256104,3.91E-05,0.973733026,1375047.386,1537498956,37.85700054,-122.2555953
7378,0.133804321,0.017903596,0.598892212,0.358671882,-0.0209198,0.000437638,0.614013938,1375047.446,1537498956,37.85700054,-122.2555953
7379,0.333953857,0.111525179,0.970993042,0.942827488,0.164993286,0.027222784,1.039988197,1375047.505,1537498957,37.85695498,-122.2555926
7380,0.290603638,0.084450474,0.614074707,0.377087746,-0.015396118,0.00023704,0.679540478,1375047.565,1537498957,37.85695498,-122.2555926
7381,0.407287598,0.165883187,1.123809814,1.262948498,-0.071090698,0.005053887,1.197449612,1375047.625,1537498957,37.85695498,-122.2555926
7382,0.153991699,0.023713443,0.679290771,0.461435952,0.26713562,0.071361439,0.745996538,1375047.684,1537498957,37.85695498,-122.2555926
7383,0.383285522,0.146907791,0.926544189,0.858484134,-0.063262939,0.004002199,1.004686083,1375047.744,1537498957,37.85695498,-122.2555926
7384,0.219390869,0.048132353,0.713592529,0.509214297,-0.048324585,0.002335266,0.748118919,1375047.804,1537498957,37.85695498,-122.2555926
7385,0.335632324,0.112649057,0.91394043,0.83528711,-0.224685669,0.05048365,0.999209596,1375047.863,1537498957,37.85695498,-122.2555926
7386,0.393768311,0.155053483,1.151901245,1.326876478,-0.389953613,0.15206382,1.278277662,1375047.923,1537498957,37.85695498,-122.2555926
7387,0.250961304,0.062981576,0.642669678,0.413024315,-0.05128479,0.00263013,0.691835256,1375047.983,1537498957,37.85695498,-122.2555926
7388,0.27746582,0.076987281,0.686065674,0.470686109,-0.159240723,0.025357608,0.75698811,1375048.042,1537498957,37.85695498,-122.2555926
7389,0.310623169,0.096486753,0.893630981,0.79857633,-0.053329468,0.002844032,0.947579609,1375048.102,1537498957,37.85695498,-122.2555926
7390,0.383911133,0.147387758,1.114227295,1.241502465,0.233657837,0.054595985,1.201451708,1375048.161,1537498957,37.85695498,-122.2555926
7391,0.286804199,0.082256649,0.910583496,0.829162303,-0.048904419,0.002391642,0.955934409,1375048.221,1537498957,37.85695498,-122.2555926
7392,0.391540527,0.153303984,1.104324341,1.21953225,-0.192703247,0.037134541,1.187421903,1375048.281,1537498957,37.85695498,-122.2555926
7393,0.415908813,0.172980141,1.146835327,1.315231267,-0.059646606,0.003557718,1.221380009,1375048.34,1537498957,37.85695498,-122.2555926
7394,0.230484009,0.053122878,0.640884399,0.410732813,0.072616577,0.005273167,0.68492982,1375048.4,1537498957,37.85695498,-122.2555926
7395,0.396438599,0.157163563,0.793380737,0.629452994,-0.332977295,0.110873879,0.947359718,1375048.46,1537498957,37.85695498,-122.2555926
7396,0.621765137,0.386591886,1.652770996,2.731651965,-0.174331665,0.030391529,1.774439455,1375048.519,1537498958,37.85690071,-122.2555825
7397,0.311477661,0.097018333,0.985473633,0.971158281,0.066223145,0.004385505,1.03564575,1375048.579,1537498958,37.85690071,-122.2555825
7398,0.265960693,0.07073509,0.893554688,0.79843998,-0.195968628,0.038403703,0.952669289,1375048.639,1537498958,37.85690071,-122.2555825
7399,0.158660889,0.025173278,0.623855591,0.389195798,-0.169052124,0.028578621,0.665543159,1375048.698,1537498958,37.85690071,-122.2555825
7400,0.378158569,0.143003903,1.026504517,1.053711523,-0.182952881,0.033471757,1.109138036,1375048.758,1537498958,37.85690071,-122.2555825
7401,0.315048218,0.09925538,0.749099731,0.561150407,-0.216140747,0.046716823,0.840905827,1375048.818,1537498958,37.85690071,-122.2555825
7402,0.367172241,0.134815455,1.036300659,1.073919056,-0.026779175,0.000717124,1.099750715,1375048.877,1537498958,37.85690071,-122.2555825
7403,0.40687561,0.165547762,1.186935425,1.408815703,-0.168792725,0.028490984,1.266038881,1375048.937,1537498958,37.85690071,-122.2555825
7404,0.363220215,0.131928925,1.152297974,1.327790621,0.06741333,0.004544557,1.210067809,1375048.997,1537498958,37.85690071,-122.2555825
7405,0.22543335,0.050820195,0.623260498,0.388453648,-0.120544434,0.014530961,0.673650358,1375049.056,1537498958,37.85690071,-122.2555825
7406,0.577102661,0.333047481,1.738067627,3.020879076,-0.398727417,0.158983553,1.87427589,1375049.116,1537498958,37.85690071,-122.2555825
7407,0.27331543,0.074701324,0.860427856,0.740336095,-0.061279297,0.003755152,0.904871578,1375049.176,1537498958,37.85690071,-122.2555825
7408,0.418685913,0.175297894,1.353088379,1.830848161,0.024353027,0.00059307,1.416594199,1375049.235,1537498958,37.85690071,-122.2555825
7409,0.315139771,0.099313075,0.875656128,0.766773655,0.179382324,0.032178018,0.947768299,1375049.295,1537498958,37.85690071,-122.2555825
7410,0.402755737,0.162212184,1.023788452,1.048142794,-0.590484619,0.348672085,1.248610053,1375049.355,1537498958,37.85690071,-122.2555825
7411,0.315292358,0.099409271,0.695526123,0.483756588,0.209030151,0.043693604,0.791744569,1375049.414,1537498958,37.85690071,-122.2555825
7412,0.258087158,0.066608981,0.744354248,0.554063247,-0.144073486,0.020757169,0.800892875,1375049.474,1537498958,37.85690071,-122.2555825
7413,0.382781982,0.146522046,1.280456543,1.639568959,-0.397338867,0.157878175,1.394262952,1375049.534,1537498959,37.85687791,-122.2555808
7414,0.416061401,0.173107089,1.024383545,1.049361647,-0.066390991,0.004407764,1.107644573,1375049.593,1537498959,37.85687791,-122.2555808
7415,0.330108643,0.108971716,0.896026611,0.802863688,-0.117828369,0.013883525,0.962142884,1375049.653,1537498959,37.85687791,-122.2555808
7416,0.296661377,0.088007973,0.935668945,0.875476375,-0.323791504,0.104840938,1.033598222,1375049.712,1537498959,37.85687791,-122.2555808
7417,0.186233521,0.034682924,0.702728271,0.493827023,0.03225708,0.001040519,0.727702183,1375049.772,1537498959,37.85687791,-122.2555808
7418,0.349411011,0.122088055,0.909179688,0.826607705,-0.090682983,0.008223403,0.978222451,1375049.832,1537498959,37.85687791,-122.2555808
7419,0.466186523,0.217329874,1.310592651,1.717653097,-0.226089478,0.051116452,1.409290397,1375049.891,1537498959,37.85687791,-122.2555808
7420,0.160598755,0.02579196,0.645111084,0.416168311,0.048202515,0.002323482,0.666546137,1375049.951,1537498959,37.85687791,-122.2555808
7421,0.23008728,0.052940156,0.831497192,0.69138758,-0.255828857,0.065448404,0.899875625,1375050.011,1537498959,37.85687791,-122.2555808
7422,0.294219971,0.086565391,0.938232422,0.880280078,-0.236129761,0.055757264,1.011238218,1375050.07,1537498959,37.85687791,-122.2555808
7423,0.218078613,0.047558281,0.758682251,0.575598758,-0.073654175,0.005424937,0.79283162,1375050.13,1537498959,37.85687791,-122.2555808
7424,0.291610718,0.085036811,0.986419678,0.973023781,0.035598755,0.001267271,1.029236544,1375050.19,1537498959,37.85687791,-122.2555808
7425,0.428070068,0.183243983,1.326660156,1.76002717,-0.161300659,0.026017903,1.403313598,1375050.249,1537498959,37.85687791,-122.2555808
7426,0.382247925,0.146113476,1.209442139,1.462750288,-0.173324585,0.030041412,1.280197319,1375050.309,1537498959,37.85687791,-122.2555808
7427,0.260665894,0.067946708,0.844772339,0.713640305,0.067443848,0.004548673,0.88664293,1375050.369,1537498959,37.85687791,-122.2555808
7428,0.295211792,0.087150002,0.93397522,0.872309712,-0.124511719,0.015503168,0.987402087,1375050.428,1537498959,37.85687791,-122.2555808
7429,0.285369873,0.081435964,0.786514282,0.618604716,0.017166138,0.000294676,0.836860416,1375050.488,1537498959,37.85687791,-122.2555808
7430,0.271209717,0.073554711,0.789520264,0.623342247,0.02784729,0.000775472,0.835267879,1375050.548,1537498960,37.85685143,-122.2555856
7431,0.313323975,0.098171913,0.82434082,0.679537788,-0.248046875,0.061527252,0.916098768,1375050.607,1537498960,37.85685143,-122.2555856
7432,0.411621094,0.169431925,1.198104858,1.435455251,-0.216598511,0.046914915,1.285224529,1375050.667,1537498960,37.85685143,-122.2555856
7433,0.340377808,0.115857052,0.897262573,0.805080125,0.01763916,0.00031114,0.959816814,1375050.727,1537498960,37.85685143,-122.2555856
7434,0.535736084,0.287013152,1.3387146,1.79215678,-0.372406006,0.138686233,1.489246845,1375050.786,1537498960,37.85685143,-122.2555856
7435,0.375015259,0.140636444,0.793884277,0.630252245,-0.2368927,0.056118151,0.909399165,1375050.846,1537498960,37.85685143,-122.2555856
7436,0.266616821,0.071084529,0.834182739,0.695860842,-0.073791504,0.005445186,0.87885753,1375050.906,1537498960,37.85685143,-122.2555856
7437,0.370895386,0.137563387,0.962310791,0.926042058,-0.191955566,0.036846939,1.049024492,1375050.965,1537498960,37.85685143,-122.2555856
7438,0.304428101,0.092676469,0.735916138,0.541572562,-0.133514404,0.017826096,0.807511688,1375051.025,1537498960,37.85685143,-122.2555856
7439,0.434234619,0.188559704,1.155761719,1.335785151,-0.165847778,0.027505485,1.245732853,1375051.085,1537498960,37.85685143,-122.2555856
7440,0.209228516,0.043776572,0.589416504,0.347411815,0.179458618,0.032205396,0.650687162,1375051.144,1537498960,37.85685143,-122.2555856
7441,0.284133911,0.080732079,0.770019531,0.592930078,-0.129058838,0.016656184,0.830853983,1375051.204,1537498960,37.85685143,-122.2555856
7442,0.531906128,0.282924129,1.406677246,1.978740874,-0.632095337,0.399544515,1.631321403,1375051.264,1537498960,37.85685143,-122.2555856
7443,0.22807312,0.052017348,0.864074707,0.746625099,-0.087280273,0.007617846,0.897919982,1375051.323,1537498960,37.85685143,-122.2555856
7444,0.323638916,0.104742148,0.810714722,0.65725836,0.017303467,0.00029941,0.873097886,1375051.383,1537498960,37.85685143,-122.2555856
7445,0.401168823,0.160936425,1.060287476,1.124209532,-0.363952637,0.132461522,1.190633226,1375051.443,1537498960,37.85685143,-122.2555856
7446,0.365432739,0.133541087,1.011978149,1.024099774,-0.043319702,0.001876597,1.076808923,1375051.502,1537498960,37.85685143,-122.2555856
7447,0.255981445,0.0655265,0.805511475,0.648848736,-0.031646729,0.001001515,0.845799475,1375051.562,1537498961,37.85682871,-122.2555888
7448,0.372650146,0.138868131,0.995346069,0.990713797,-0.237442017,0.056378711,1.0890182,1375051.622,1537498961,37.85682871,-122.2555888
7449,0.371414185,0.137948497,0.832443237,0.692961743,-0.156997681,0.024648272,0.92496406,1375051.681,1537498961,37.85682871,-122.2555888
7450,0.282699585,0.079919055,0.76512146,0.585410849,-0.00177002,3.13E-06,0.815679494,1375051.741,1537498961,37.85682871,-122.2555888
7451,0.402908325,0.162335118,1.154205322,1.332189925,-0.307800293,0.09474102,1.260660963,1375051.8,1537498961,37.85682871,-122.2555888
7452,0.35848999,0.128515073,0.968414307,0.93782627,-0.070068359,0.004909575,1.035012521,1375051.86,1537498961,37.85682871,-122.2555888
7453,0.241714478,0.058425889,0.687225342,0.472278671,0.099243164,0.009849206,0.735223616,1375051.92,1537498961,37.85682871,-122.2555888
7454,0.340393066,0.115867439,0.97644043,0.953435913,-0.122787476,0.015076764,1.041335737,1375051.979,1537498961,37.85682871,-122.2555888
7455,0.359695435,0.129380806,1.034408569,1.070001088,-0.167694092,0.028121308,1.107927435,1375052.039,1537498961,37.85682871,-122.2555888
7456,0.36857605,0.135848305,0.93309021,0.87065734,-0.019378662,0.000375533,1.00343469,1375052.099,1537498961,37.85682871,-122.2555888
7457,0.304779053,0.092890271,0.955169678,0.912349114,-0.029449463,0.000867271,1.003048681,1375052.158,1537498961,37.85682871,-122.2555888
7458,0.275878906,0.076109171,0.94581604,0.894567982,-0.155578613,0.024204705,0.997437646,1375052.218,1537498961,37.85682871,-122.2555888
7459,0.331054688,0.109597206,0.870040894,0.756971157,-0.241470337,0.058307924,0.961704886,1375052.278,1537498961,37.85682871,-122.2555888
7460,0.388977051,0.151303146,1.026016235,1.052709314,-0.069946289,0.004892483,1.099502135,1375052.337,1537498961,37.85682871,-122.2555888
7461,0.334106445,0.111627117,0.920272827,0.846902076,-0.064041138,0.004101267,0.98113733,1375052.397,1537498961,37.85682871,-122.2555888
7462,0.366241455,0.134132803,1.016677856,1.033633863,-0.171310425,0.029347262,1.094127016,1375052.457,1537498961,37.85682871,-122.2555888
7463,0.373062134,0.139175356,1.109283447,1.230509766,-0.179595947,0.032254704,1.184035399,1375052.516,1537498962,37.85681966,-122.2555824
7464,0.313034058,0.097990321,0.962646484,0.926688253,-0.178085327,0.031714384,1.027809787,1375052.576,1537498962,37.85681966,-122.2555824
7465,0.361358643,0.130580069,0.969238281,0.939422845,-0.066177368,0.004379444,1.036524172,1375052.636,1537498962,37.85681966,-122.2555824
7466,0.297668457,0.08860651,0.938491821,0.880766898,-0.117630005,0.013836818,0.991569577,1375052.695,1537498962,37.85681966,-122.2555824
7467,0.264602661,0.070014568,0.910614014,0.829217882,-0.178726196,0.031943053,0.964974354,1375052.755,1537498962,37.85681966,-122.2555824
7468,0.312164307,0.097446555,0.811172485,0.6580008,-0.25440979,0.064724341,0.905633312,1375052.815,1537498962,37.85681966,-122.2555824
7469,0.366134644,0.134054578,0.902542114,0.814582268,-0.048599243,0.002361886,0.975191638,1375052.874,1537498962,37.85681966,-122.2555824
7470,0.329971313,0.108881067,0.909744263,0.827634624,-0.062561035,0.003913883,0.969757482,1375052.934,1537498962,37.85681966,-122.2555824
7471,0.349304199,0.122013423,1.023544312,1.047642959,-0.195037842,0.03803976,1.098952293,1375052.994,1537498962,37.85681966,-122.2555824
7472,0.339889526,0.11552489,1.035751343,1.072780845,-0.097488403,0.009503989,1.094444938,1375053.053,1537498962,37.85681966,-122.2555824
7473,0.342956543,0.11761919,0.909393311,0.826996194,0.008056641,6.49E-05,0.971946652,1375053.113,1537498962,37.85681966,-122.2555824
7474,0.387420654,0.150094763,0.943695068,0.890560381,-0.119888306,0.014373206,1.02714573,1375053.173,1537498962,37.85681966,-122.2555824
7475,0.347091675,0.120472631,0.95489502,0.911824499,-0.129196167,0.01669165,1.024201533,1375053.232,1537498962,37.85681966,-122.2555824
7476,0.243392944,0.059240125,0.933319092,0.871084527,-0.104766846,0.010976092,0.970206547,1375053.292,1537498962,37.85681966,-122.2555824
7477,0.317199707,0.100615654,1.010406494,1.020921283,-0.168167114,0.028280178,1.072295256,1375053.352,1537498962,37.85681966,-122.2555824
7478,0.395217896,0.156197185,0.998153687,0.996310783,-0.129577637,0.016790364,1.081340988,1375053.411,1537498962,37.85681966,-122.2555824
7479,0.312316895,0.097541843,0.924346924,0.854417236,-0.102874756,0.010583215,0.981092398,1375053.471,1537498962,37.85681966,-122.2555824
7480,0.281036377,0.078981445,0.958816528,0.919329134,-0.034164429,0.001167208,0.99973886,1375053.531,1537498963,37.85682318,-122.255572
7481,0.312362671,0.097570438,0.926071167,0.857607806,-0.081817627,0.006694124,0.980750921,1375053.59,1537498963,37.85682318,-122.255572
7482,0.257247925,0.066176495,0.946289063,0.895462991,-0.106079102,0.011252776,0.986353011,1375053.65,1537498963,37.85682318,-122.255572
7483,0.248062134,0.061534822,1.033889771,1.068928059,-0.125076294,0.015644079,1.070563852,1375053.71,1537498963,37.85682318,-122.255572
7484,0.283233643,0.080221297,0.937316895,0.878562962,-0.113861084,0.012964346,0.9857731,1375053.769,1537498963,37.85682318,-122.255572
7485,0.292633057,0.085634106,0.937316895,0.878562962,-0.096405029,0.00929393,0.986656474,1375053.829,1537498963,37.85682318,-122.255572
7486,0.230300903,0.053038506,0.977630615,0.955761619,-0.177688599,0.031573238,1.019986943,1375053.888,1537498963,37.85682318,-122.255572
7487,0.206802368,0.042767219,0.991653442,0.983376549,-0.141784668,0.020102892,1.022861995,1375053.948,1537498963,37.85682318,-122.255572
7488,0.251327515,0.06316552,0.963882446,0.92906937,-0.149612427,0.022383878,1.007282864,1375054.008,1537498963,37.85682318,-122.255572
7489,0.278594971,0.077615158,0.929794312,0.864517463,-0.167098999,0.027922075,0.984913547,1375054.067,1537498963,37.85682318,-122.255572
7490,0.292098999,0.085321825,0.922027588,0.850134873,-0.218505859,0.04774481,0.991565181,1375054.127,1537498963,37.85682318,-122.255572
7491,0.331451416,0.109860041,0.90322876,0.815822193,-0.211593628,0.044771863,0.985116286,1375054.187,1537498963,37.85682318,-122.255572
7492,0.343429565,0.117943866,0.912567139,0.832778783,-0.23059082,0.053172126,1.001945495,1375054.246,1537498963,37.85682318,-122.255572
7493,0.293731689,0.086278305,0.940551758,0.884637609,-0.263824463,0.069603347,1.02005846,1375054.306,1537498963,37.85682318,-122.255572
7494,0.283859253,0.080576076,1.089538574,1.187094304,-0.242782593,0.058943387,1.151787206,1375054.366,1537498963,37.85682318,-122.255572
7495,0.279876709,0.078330972,0.983825684,0.967912976,-0.277999878,0.077283932,1.059965981,1375054.425,1537498963,37.85682318,-122.255572
7496,0.2787323,0.077691695,0.914642334,0.836570599,-0.185928345,0.034569349,0.974079896,1375054.485,1537498964,37.8568148,-122.2555724
7497,0.259170532,0.067169365,0.932922363,0.870344135,-0.208984375,0.043674469,0.990549327,1375054.545,1537498964,37.8568148,-122.2555724
7498,0.220855713,0.048777246,0.952270508,0.90681912,-0.225296021,0.050758297,1.0031723,1375054.604,1537498964,37.8568148,-122.2555724
7499,0.241546631,0.058344775,0.94468689,0.89243332,-0.232910156,0.054247141,1.002509469,1375054.664,1537498964,37.8568148,-122.2555724
7500,0.238479614,0.056872526,0.939025879,0.881769601,-0.234115601,0.054810115,0.996720744,1375054.724,1537498964,37.8568148,-122.2555724
7501,0.230529785,0.053143982,0.94418335,0.891482198,-0.217193604,0.047173062,0.99589118,1375054.783,1537498964,37.8568148,-122.2555724
7502,0.24230957,0.058713928,0.941986084,0.887337782,-0.22265625,0.049575806,0.997811363,1375054.843,1537498964,37.8568148,-122.2555724
7503,0.261154175,0.068201503,0.933578491,0.871568799,-0.22833252,0.05213574,0.995944799,1375054.903,1537498964,37.8568148,-122.2555724
7504,0.261550903,0.068408875,0.934371948,0.873050937,-0.237945557,0.056618088,0.999038488,1375054.962,1537498964,37.8568148,-122.2555724
7505,0.256500244,0.065792375,0.937210083,0.87836274,-0.218536377,0.047758148,0.995948424,1375055.022,1537498964,37.8568148,-122.2555724
7506,0.268798828,0.07225281,0.933868408,0.872110203,-0.227432251,0.051725429,0.998042305,1375055.082,1537498964,37.8568148,-122.2555724
7507,0.288726807,0.083363169,0.932006836,0.868636742,-0.237457275,0.056385957,1.004184181,1375055.141,1537498964,37.8568148,-122.2555724
7508,0.313095093,0.098028537,0.916732788,0.840399005,-0.254562378,0.064802004,1.001613471,1375055.201,1537498964,37.8568148,-122.2555724
7509,0.311325073,0.096923301,0.911270142,0.830413272,-0.197097778,0.038847534,0.982946645,1375055.261,1537498964,37.8568148,-122.2555724
7510,0.31036377,0.09632567,0.912353516,0.832388938,-0.237457275,0.056385957,0.992522325,1375055.32,1537498964,37.8568148,-122.2555724
7511,0.303634644,0.092193997,0.929779053,0.864489087,-0.209732056,0.043987535,1.000335254,1375055.38,1537498964,37.8568148,-122.2555724
7512,0.291137695,0.084761157,0.927642822,0.860521205,-0.221496582,0.049060736,0.997167538,1375055.44,1537498964,37.8568148,-122.2555724
7513,0.301223755,0.090735751,0.915237427,0.837659548,-0.202331543,0.040938053,0.984547283,1375055.499,1537498965,37.8568148,-122.2555724
7514,0.308792114,0.09535257,0.917678833,0.842134441,-0.231323242,0.053510442,0.99548855,1375055.559,1537498965,37.8568148,-122.2555724
7515,0.279693604,0.078228512,0.926010132,0.857494765,-0.236312866,0.055843771,0.995774597,1375055.619,1537498965,37.8568148,-122.2555724
7516,0.292877197,0.085777053,0.929840088,0.864602589,-0.229904175,0.05285593,1.001616479,1375055.678,1537498965,37.8568148,-122.2555724
7517,0.289840698,0.08400763,0.927871704,0.860945899,-0.225769043,0.050971661,0.997960515,1375055.738,1537498965,37.8568148,-122.2555724
7518,0.254302979,0.064670005,0.937042236,0.878048152,-0.23097229,0.053348199,0.99803124,1375055.798,1537498965,37.8568148,-122.2555724
7519,0.26461792,0.070022644,0.937332153,0.878591565,-0.229812622,0.052813841,1.00071377,1375055.857,1537498965,37.8568148,-122.2555724
7520,0.275268555,0.075772777,0.92805481,0.86128573,-0.224563599,0.05042881,0.993723965,1375055.917,1537498965,37.8568148,-122.2555724
7521,0.26651001,0.071027585,0.931991577,0.8686083,-0.221191406,0.048925638,0.994264313,1375055.977,1537498965,37.8568148,-122.2555724
7522,0.273269653,0.074676303,0.928375244,0.861880594,-0.220245361,0.048508019,0.992504366,1375056.036,1537498965,37.8568148,-122.2555724
7523,0.285446167,0.081479514,0.919464111,0.845414251,-0.226745605,0.051413569,0.989094199,1375056.096,1537498965,37.8568148,-122.2555724
7524,0.296417236,0.087863178,0.931671143,0.868011119,-0.232147217,0.05389233,1.004871448,1375056.156,1537498965,37.8568148,-122.2555724
7525,0.292373657,0.085482355,0.932144165,0.868892744,-0.231277466,0.053489266,1.003924482,1375056.215,1537498965,37.8568148,-122.2555724
7526,0.270263672,0.073042452,0.926712036,0.858795198,-0.2212677,0.048959395,0.99035198,1375056.275,1537498965,37.8568148,-122.2555724
7527,0.276687622,0.07655604,0.926895142,0.859134604,-0.219467163,0.048165836,0.991895398,1375056.335,1537498965,37.8568148,-122.2555724
7528,0.309448242,0.095758214,0.925094604,0.855800026,-0.230026245,0.052912073,1.002232665,1375056.394,1537498965,37.8568148,-122.2555724
7529,0.305664063,0.093430519,0.926422119,0.858257943,-0.227218628,0.051628305,1.001657011,1375056.454,1537498965,37.8568148,-122.2555724
7530,0.280990601,0.078955718,0.93800354,0.879850641,-0.283325195,0.080273166,1.019352503,1375056.514,1537498966,37.85681513,-122.2555813
7531,0.226135254,0.051137153,0.93661499,0.877247639,-0.283859253,0.080576076,1.004470442,1375056.573,1537498966,37.85681513,-122.2555813
7532,0.271499634,0.073712051,0.926330566,0.858088318,-0.231338501,0.053517502,0.99263179,1375056.633,1537498966,37.85681513,-122.2555813
7533,0.303512573,0.092119882,0.931564331,0.867812103,-0.272232056,0.074110292,1.016878693,1375056.693,1537498966,37.85681513,-122.2555813
7534,0.32875061,0.108076964,0.895263672,0.801497042,-0.306381226,0.093869456,1.001720251,1375056.752,1537498966,37.85681513,-122.2555813
7535,0.338394165,0.114510611,0.872406006,0.761092239,-0.330307007,0.109102719,0.992323319,1375056.812,1537498966,37.85681513,-122.2555813
7536,0.348648071,0.121555477,0.884124756,0.781676584,-0.315582275,0.099592172,1.001411121,1375056.872,1537498966,37.85681513,-122.2555813
7537,0.325302124,0.105821472,0.896072388,0.802945725,-0.357025146,0.127466955,1.017955869,1375056.931,1537498966,37.85681513,-122.2555813
7538,0.283279419,0.080247229,0.864730835,0.747759417,-0.361953735,0.131010506,0.979294211,1375056.991,1537498966,37.85681513,-122.2555813
7539,0.280349731,0.078595972,0.884994507,0.783215277,-0.351455688,0.123521101,0.992639083,1375057.051,1537498966,37.85681513,-122.2555813
7540,0.289306641,0.083698333,0.880096436,0.774569737,-0.348022461,0.121119633,0.989640188,1375057.11,1537498966,37.85681513,-122.2555813
7541,0.303024292,0.091823722,0.874465942,0.764690684,-0.360961914,0.130293503,0.993382056,1375057.17,1537498966,37.85681513,-122.2555813
7542,0.29675293,0.088062301,0.776977539,0.603694096,-0.433685303,0.188082942,0.937997516,1375057.23,1537498966,37.85681513,-122.2555813
7543,0.358291626,0.128372889,0.797912598,0.636664514,-0.367462158,0.135028438,0.948717999,1375057.289,1537498966,37.85681513,-122.2555813
7544,0.401412964,0.161132368,0.936752319,0.877504907,-0.251068115,0.063035198,1.049605866,1375057.349,1537498966,37.85681513,-122.2555813
7545,0.319000244,0.101761156,0.961044312,0.92360617,-0.301055908,0.09063466,1.056409951,1375057.409,1537498967,37.85681308,-122.2555833
7546,0.29876709,0.089261774,0.893630981,0.79857633,-0.327728271,0.10740582,0.997619128,1375057.468,1537498967,37.85681308,-122.2555833
7547,0.314437866,0.098871172,0.865951538,0.749872066,-0.320083618,0.102453523,0.975293166,1375057.528,1537498967,37.85681308,-122.2555833
7548,0.402770996,0.162224475,1.020111084,1.040626624,-0.353652954,0.125070412,1.152354768,1375057.588,1537498967,37.85681308,-122.2555833
7549,0.368591309,0.135859553,0.920761108,0.847801018,-0.370330811,0.13714491,1.05868101,1375057.647,1537498967,37.85681308,-122.2555833
7550,0.313919067,0.098545181,0.833312988,0.694410536,-0.352600098,0.124326829,0.957748686,1375057.707,1537498967,37.85681308,-122.2555833
7551,0.348297119,0.121310883,0.856933594,0.734335185,-0.370635986,0.137371034,0.996502434,1375057.766,1537498967,37.85681308,-122.2555833
7552,0.370147705,0.137009324,0.797943115,0.636713215,-0.52746582,0.278220191,1.025642593,1375057.826,1537498967,37.85681308,-122.2555833
7553,0.42880249,0.183871575,0.844451904,0.713099018,-0.37046814,0.137246643,1.016964717,1375057.886,1537498967,37.85681308,-122.2555833
7554,0.428359985,0.183492277,0.704193115,0.495887943,-0.467178345,0.218255606,0.94743645,1375057.945,1537498967,37.85681308,-122.2555833
7555,0.381958008,0.14589192,0.76423645,0.584057352,-0.286056519,0.081828332,0.900987016,1375058.005,1537498967,37.85681308,-122.2555833
7556,0.250411987,0.062706163,0.858932495,0.737765031,-0.73550415,0.540966355,1.15820445,1375058.065,1537498967,37.85681308,-122.2555833
7557,0.057037354,0.00325326,0.85005188,0.722588199,-0.025024414,0.000626221,0.852330734,1375058.124,1537498967,37.85681308,-122.2555833
7558,0.066131592,0.004373387,1.072219849,1.149655405,-0.325317383,0.1058314,1.122434939,1375058.184,1537498967,37.85681308,-122.2555833
7559,0.093902588,0.008817696,1.111938477,1.236407177,-0.358062744,0.128208929,1.17193592,1375058.244,1537498967,37.85681308,-122.2555833
7560,0.167999268,0.028223754,0.948196411,0.899076434,-0.080917358,0.006547619,0.966358012,1375058.303,1537498967,37.85681308,-122.2555833
7561,-0.019088745,0.00036438,0.97744751,0.955403635,0.006942749,4.82E-05,0.977658538,1375058.363,1537498967,37.85681308,-122.2555833
7562,-0.083602905,0.006989446,0.549041748,0.301446841,-0.212203979,0.045030529,0.594530752,1375058.423,1537498967,37.85681308,-122.2555833
7563,0.273483276,0.074793102,1.209899902,1.463857773,-0.422927856,0.178867971,1.310541433,1375058.482,1537498968,37.85679908,-122.2555898
7564,0.455825806,0.207777165,1.149734497,1.321889414,0.027236938,0.000741851,1.237096775,1375058.542,1537498968,37.85679908,-122.2555898
7565,0.472640991,0.223389506,0.724639893,0.525102975,-0.421066284,0.177296816,0.962179451,1375058.602,1537498968,37.85679908,-122.2555898
7566,0.729782104,0.532581919,1.535186768,2.356798413,-0.55430603,0.307255175,1.78791373,1375058.661,1537498968,37.85679908,-122.2555898
7567,0.352157593,0.12401497,0.162002563,0.02624483,-0.102111816,0.010426823,0.400857361,1375058.721,1537498968,37.85679908,-122.2555898
7568,0.515213013,0.265444449,1.126953125,1.270023346,-0.793624878,0.629840447,1.471498638,1375058.781,1537498968,37.85679908,-122.2555898
7569,0.205886841,0.042389391,0.718673706,0.516491896,-0.501602173,0.25160474,0.900269974,1375058.84,1537498968,37.85679908,-122.2555898
7570,-0.032669067,0.001067268,0.410919189,0.16885458,-0.170257568,0.028987639,0.445992699,1375058.9,1537498968,37.85679908,-122.2555898
7571,-0.038528442,0.001484441,1.064666748,1.133515284,-0.573913574,0.32937679,1.210114257,1375058.96,1537498968,37.85679908,-122.2555898
7572,-0.189575195,0.035938755,0.878463745,0.771698551,-0.520523071,0.270944267,1.038547819,1375059.019,1537498968,37.85679908,-122.2555898
7573,0.422073364,0.178145925,1.065856934,1.136051004,-0.336227417,0.113048876,1.194673932,1375059.079,1537498968,37.85679908,-122.2555898
7574,0.341293335,0.116481141,0.63571167,0.404129327,-0.266662598,0.071108941,0.769233001,1375059.139,1537498968,37.85679908,-122.2555898
7575,0.533401489,0.284517148,0.714431763,0.510412744,-0.234832764,0.055146427,0.921995835,1375059.198,1537498968,37.85679908,-122.2555898
7576,1.216491699,1.479852054,1.917007446,3.674917548,-0.738388062,0.54521693,2.387464457,1375059.258,1537498968,37.85679908,-122.2555898
7577,0.599487305,0.359385029,0.471405029,0.222222701,0.344100952,0.118405465,0.836667912,1375059.318,1537498968,37.85679908,-122.2555898
7578,0.585128784,0.342375694,0.728805542,0.531157518,-0.188278198,0.03544868,0.953405418,1375059.377,1537498968,37.85679908,-122.2555898
7579,0.545516968,0.297588762,1.221984863,1.493247005,-0.369064331,0.13620848,1.388180193,1375059.437,1537498968,37.85679908,-122.2555898
7580,0.249847412,0.062423729,0.906951904,0.822561756,-0.32623291,0.106427912,0.995697443,1375059.497,1537498969,37.85677377,-122.2555893
7581,0.16519165,0.027288281,0.709625244,0.503567987,-0.581573486,0.33822772,0.932246742,1375059.556,1537498969,37.85677377,-122.2555893
7582,0.152877808,0.023371624,0.761306763,0.579587987,-0.346786499,0.120260876,0.850423711,1375059.616,1537498969,37.85677377,-122.2555893
7583,0.168884277,0.028521899,0.690841675,0.47726222,-0.334793091,0.112086414,0.786047411,1375059.676,1537498969,37.85677377,-122.2555893
7584,0.064697266,0.004185736,0.546112061,0.298238383,-0.43258667,0.187131227,0.699682318,1375059.735,1537498969,37.85677377,-122.2555893
7585,0.273712158,0.074918345,0.867370605,0.752331766,-0.636657715,0.405333046,1.110217617,1375059.795,1537498969,37.85677377,-122.2555893
7586,0.394271851,0.155450292,1.042495728,1.086797343,-0.457366943,0.209184521,1.204753981,1375059.854,1537498969,37.85677377,-122.2555893
7587,-0.088668823,0.00786216,0.139816284,0.019548593,-0.145904541,0.021288135,0.220678247,1375059.914,1537498969,37.85677377,-122.2555893
7588,0.131759644,0.017360604,1.212081909,1.469142554,-0.61656189,0.380148564,1.366254633,1375059.974,1537498969,37.85677377,-122.2555893
7589,0.199111938,0.039645564,1.143325806,1.307193899,0.133987427,0.017952631,1.168243165,1375060.033,1537498969,37.85677377,-122.2555893
7590,0.330871582,0.109476004,1.500167847,2.250503569,0.211425781,0.044700861,1.550703206,1375060.093,1537498969,37.85677377,-122.2555893
7591,0.003662109,1.34E-05,0.595489502,0.354607747,0.067443848,0.004548673,0.599307793,1375060.153,1537498969,37.85677377,-122.2555893
7592,0.431884766,0.186524451,0.945251465,0.893500332,-0.199234009,0.03969419,1.058167744,1375060.212,1537498969,37.85677377,-122.2555893
7593,0.583724976,0.340734848,1.223220825,1.496269187,-0.438110352,0.191940681,1.424410304,1375060.272,1537498969,37.85677377,-122.2555893
7594,0.271835327,0.073894445,0.635513306,0.403877162,-0.219650269,0.048246241,0.725270879,1375060.332,1537498969,37.85677377,-122.2555893
7595,0.559448242,0.312982335,1.067245483,1.139012921,-0.889785767,0.791718711,1.49790319,1375060.391,1537498969,37.85677377,-122.2555893
7596,0.518234253,0.268566741,1.337768555,1.789624707,-0.441894531,0.195270777,1.501153631,1375060.451,1537498969,37.85677377,-122.2555893
7597,0.463378906,0.214720011,1.339706421,1.794813294,-0.809188843,0.654786584,1.632274453,1375060.511,1537498970,37.85673965,-122.255586
7598,0.479400635,0.229824969,1.326889038,1.760634519,-0.555435181,0.30850824,1.516234721,1375060.57,1537498970,37.85673965,-122.255586
7599,0.681762695,0.464800372,1.553665161,2.413875433,-0.461395264,0.21288559,1.75828365,1375060.63,1537498970,37.85673965,-122.255586
7600,0.414169312,0.171536219,-0.135986328,0.018492281,0.282623291,0.079875925,0.519523267,1375060.69,1537498970,37.85673965,-122.255586
7601,0.515869141,0.266120971,0.363601685,0.132206185,-0.113983154,0.012992159,0.641341809,1375060.749,1537498970,37.85673965,-122.255586
7602,0.294754028,0.086879937,0.167282104,0.027983302,-0.148239136,0.021974841,0.369916316,1375060.809,1537498970,37.85673965,-122.255586
7603,0.301040649,0.090625472,0.340927124,0.116231304,-0.342941284,0.117608724,0.569618733,1375060.869,1537498970,37.85673965,-122.255586
7604,0.267745972,0.071687906,0.629699707,0.396521721,-0.379699707,0.144171867,0.782548078,1375060.928,1537498970,37.85673965,-122.255586
7605,0.362548828,0.131441653,1.293579102,1.673346893,-0.9427948,0.888862035,1.641234469,1375060.988,1537498970,37.85673965,-122.255586
7606,0.205749512,0.042332862,1.208023071,1.45931974,-0.484466553,0.234707841,1.317710303,1375061.048,1537498970,37.85673965,-122.255586
7607,-0.041854858,0.001751829,0.104522705,0.010924996,-0.106735229,0.011392409,0.155142625,1375061.107,1537498970,37.85673965,-122.255586
7608,0.376251221,0.141564981,2.401016235,5.764878961,-1.08039856,1.167261048,2.659643771,1375061.167,1537498970,37.85673965,-122.255586
7609,-0.083190918,0.006920729,0.805435181,0.648725831,0.332977295,0.110873879,0.87551153,1375061.227,1537498970,37.85673965,-122.255586
7610,0.3384552,0.114551922,1.78112793,3.172416703,-0.329956055,0.108870998,1.842780406,1375061.286,1537498970,37.85673965,-122.255586
7611,0.191940308,0.036841082,1.233627319,1.521836362,0.30039978,0.090240028,1.284101815,1375061.346,1537498970,37.85673965,-122.255586
7612,0.140396118,0.01971107,0.428283691,0.18342692,0.135818481,0.01844666,0.470727787,1375061.406,1537498970,37.85673965,-122.255586
7613,1.038024902,1.077495697,3.313812256,10.98135167,-0.891494751,0.794762891,3.585193197,1375061.465,1537498970,37.85673965,-122.255586
7614,0.189727783,0.035996632,-0.202590942,0.04104309,-0.067428589,0.004546615,0.285633219,1375061.525,1537498971,37.85670348,-122.2555761
7615,0.689208984,0.475009024,1.365463257,1.864489906,-1.003585815,1.007184488,1.829394276,1375061.585,1537498971,37.85670348,-122.2555761
7616,0.355331421,0.126260419,0.76612854,0.58695294,-0.439208984,0.192904532,0.951902248,1375061.644,1537498971,37.85670348,-122.2555761
7617,0.212020874,0.044952851,0.405197144,0.164184726,-0.191436768,0.036648036,0.4957677,1375061.704,1537498971,37.85670348,-122.2555761
7618,0.703048706,0.494277483,0.972381592,0.94552596,-0.15045166,0.022635702,1.209313502,1375061.763,1537498971,37.85670348,-122.2555761
7619,0.678253174,0.460027368,0.697143555,0.486009136,0.142028809,0.020172183,0.982959148,1375061.823,1537498971,37.85670348,-122.2555761
7620,0.365371704,0.133496482,0.318496704,0.10144015,0.267654419,0.071638888,0.553692623,1375061.883,1537498971,37.85670348,-122.2555761
7621,0.520385742,0.27080132,1.17791748,1.38748959,-0.480010986,0.230410547,1.374300352,1375061.942,1537498971,37.85670348,-122.2555761
7622,0.316482544,0.100161201,1.083435059,1.173831527,-0.232574463,0.054090881,1.152425099,1375062.002,1537498971,37.85670348,-122.2555761
7623,0.105743408,0.011181668,0.575790405,0.33153459,-0.468399048,0.219397668,0.749742574,1375062.062,1537498971,37.85670348,-122.2555761
7624,0.174804688,0.030556679,1.363601685,1.859409555,-0.957824707,0.917428169,1.675528097,1375062.121,1537498971,37.85670348,-122.2555761
7625,-0.068710327,0.004721109,0.479858398,0.230264082,0.130813599,0.017112198,0.502093008,1375062.181,1537498971,37.85670348,-122.2555761
7626,0.014297485,0.000204418,0.68421936,0.468156133,0.030807495,0.000949102,0.685061787,1375062.241,1537498971,37.85670348,-122.2555761
7627,0.109695435,0.012033088,1.123214722,1.261611312,0.358001709,0.128165224,1.183980415,1375062.3,1537498971,37.85670348,-122.2555761
7628,0.283157349,0.080178084,1.30027771,1.690722123,-0.153793335,0.02365239,1.339609121,1375062.36,1537498971,37.85670348,-122.2555761
7629,0.40864563,0.166991251,1.195663452,1.42961109,0.102050781,0.010414362,1.267681625,1375062.42,1537498971,37.85670348,-122.2555761
7630,0.300598145,0.090359245,0.56602478,0.320384052,-1.565673828,2.451334536,1.691767665,1375062.479,1537498971,37.85670348,-122.2555761
7631,0.549499512,0.301949714,0.48765564,0.237808023,-0.51890564,0.269263063,0.899455836,1375062.539,1537498972,37.85666208,-122.2555628
7632,1.433944702,2.056197408,2.601577759,6.768206836,-0.653625488,0.427226279,3.04164931,1375062.599,1537498972,37.85666208,-122.2555628
7633,0.455413818,0.207401746,0.018798828,0.000353396,0.566589355,0.321023497,0.727171671,1375062.658,1537498972,37.85666208,-122.2555628
7634,0.707321167,0.500303233,1.55039978,2.403739478,-0.262893677,0.069113085,1.72428414,1375062.718,1537498972,37.85666208,-122.2555628
7635,0.082473755,0.00680192,2.08996582,4.367957129,-0.245147705,0.060097397,2.105909886,1375062.778,1537498972,37.85666208,-122.2555628
7636,-0.288665771,0.083327927,0.352523804,0.124273032,-0.45375061,0.205889616,0.643032329,1375062.837,1537498972,37.85666208,-122.2555628
7637,-0.065246582,0.004257116,0.200180054,0.040072054,-0.555419922,0.30849129,0.593986919,1375062.897,1537498972,37.85666208,-122.2555628
7638,0.943786621,0.890733186,1.426712036,2.035507234,-0.33656311,0.113274727,1.743420531,1375062.957,1537498972,37.85666208,-122.2555628
7639,0.217178345,0.047166434,0.462402344,0.213815928,0.196273804,0.038523406,0.547271201,1375063.016,1537498972,37.85666208,-122.2555628
7640,0.106872559,0.011421744,0.698577881,0.488011056,0.034164429,0.001167208,0.707530924,1375063.076,1537498972,37.85666208,-122.2555628
7641,0.423431396,0.179294147,1.279907227,1.63816251,-0.466400146,0.217529096,1.426529268,1375063.136,1537498972,37.85666208,-122.2555628
7642,0.206619263,0.04269152,0.714431763,0.510412744,-0.032012939,0.001024828,0.744398477,1375063.195,1537498972,37.85666208,-122.2555628
7643,0.564407349,0.318555656,1.095504761,1.200130681,-0.836730957,0.700118694,1.489565383,1375063.255,1537498972,37.85666208,-122.2555628
7644,0.079299927,0.006288478,-0.320129395,0.10248283,0.089981079,0.008096595,0.341859478,1375063.315,1537498972,37.85666208,-122.2555628
