loggingSample(N),accelerometerAccelerationX(G),SQR_accelerometerAccelerationX(G),accelerometerAccelerationY(G),SQR_accelerometerAccelerationY(G),accelerometerAccelerationZ(G),SQR_accelerometerAccelerationZ(G),TOTAL_ACCELERATION,accelerometerTimestamp_sinceReboot(s),locationTimestamp_since1970(s),locationLatitude(WGS84),locationLongitude(WGS84)
19312,0.186950684,0.034950558,0.841995239,0.708955982,-0.299087524,0.089453347,0.912885474,1375745.597,1537499655,37.81577811,-122.2640958
19313,0.256820679,0.065956861,0.904129028,0.817449299,-0.270401001,0.073116701,0.978019868,1375745.656,1537499655,37.81577811,-122.2640958
19314,0.253692627,0.064359949,0.822372437,0.676296425,-0.107406616,0.011536181,0.867290352,1375745.716,1537499655,37.81577811,-122.2640958
19315,0.319076538,0.101809837,0.946075439,0.895058736,-0.293731689,0.086278305,1.040743426,1375745.776,1537499655,37.81577811,-122.2640958
19316,0.335266113,0.112403367,0.941421509,0.886274458,-0.206726074,0.04273567,1.02049669,1375745.835,1537499655,37.81577811,-122.2640958
19317,0.264663696,0.070046872,0.788101196,0.621103495,-0.222457886,0.049487511,0.860603206,1375745.895,1537499655,37.81577811,-122.2640958
19318,0.306472778,0.093925564,0.969741821,0.940399199,-0.175445557,0.030781143,1.032039683,1375745.954,1537499655,37.81577811,-122.2640958
19319,0.242080688,0.05860306,0.84362793,0.711708084,-0.241165161,0.058160635,0.910204251,1375746.014,1537499655,37.81577811,-122.2640958
19320,0.248214722,0.061610548,0.92980957,0.864545836,-0.156402588,0.02446177,0.974996489,1375746.074,1537499655,37.81577811,-122.2640958
19321,0.310821533,0.096610025,1.176818848,1.384902601,-0.308624268,0.095248939,1.255691668,1375746.133,1537499655,37.81577811,-122.2640958
19322,0.177429199,0.031481121,0.886871338,0.78654077,-0.03187561,0.001016055,0.905007152,1375746.193,1537499655,37.81577811,-122.2640958
19323,0.161529541,0.026091793,0.847885132,0.718909197,-0.163757324,0.026816461,0.878531417,1375746.253,1537499655,37.81577811,-122.2640958
19324,0.288330078,0.083134234,0.963653564,0.928628191,-0.33821106,0.114386721,1.061201746,1375746.312,1537499655,37.81577811,-122.2640958
19325,0.251861572,0.063434251,0.902801514,0.815050574,-0.256561279,0.06582369,0.971755378,1375746.372,1537499655,37.81577811,-122.2640958
19326,0.188201904,0.035419957,0.909011841,0.826302527,-0.228378296,0.052156646,0.955970256,1375746.432,1537499655,37.81577811,-122.2640958
19327,0.207305908,0.042975739,0.88067627,0.775590693,-0.269378662,0.072564864,0.943997508,1375746.491,1537499655,37.81577811,-122.2640958
19328,0.176147461,0.031027928,0.841278076,0.707748801,-0.260223389,0.067716212,0.898049521,1375746.551,1537499656,37.81575568,-122.2641097
19329,0.166946411,0.027871104,0.879196167,0.7729859,-0.292724609,0.085687697,0.941565027,1375746.611,1537499656,37.81575568,-122.2641097
19330,0.16859436,0.028424058,0.934494019,0.873279072,-0.231506348,0.053595189,0.977393636,1375746.67,1537499656,37.81575568,-122.2641097
19331,0.226577759,0.051337481,1.065216064,1.134685263,-0.343261719,0.117828608,1.141863105,1375746.73,1537499656,37.81575568,-122.2641097
19332,0.247421265,0.061217282,0.864425659,0.74723172,-0.086761475,0.007527554,0.903314207,1375746.79,1537499656,37.81575568,-122.2641097
19333,0.277557373,0.077038095,0.965301514,0.931807013,-0.31590271,0.099794522,1.052919575,1375746.849,1537499656,37.81575568,-122.2641097
19334,0.247558594,0.061285257,0.942459106,0.888229166,-0.147628784,0.021794258,0.985549939,1375746.909,1537499656,37.81575568,-122.2641097
19335,0.234695435,0.055081947,1.016159058,1.032579231,-0.204925537,0.041994476,1.062852602,1375746.969,1537499656,37.81575568,-122.2641097
19336,0.240646362,0.057910672,1.003631592,1.007276372,-0.20300293,0.04121019,1.051854188,1375747.028,1537499656,37.81575568,-122.2641097
19337,0.237976074,0.056632612,1.199188232,1.438052416,-0.080047607,0.006407619,1.225190861,1375747.088,1537499656,37.81575568,-122.2641097
19338,0.118713379,0.014092866,0.873916626,0.763730269,-0.180236816,0.03248531,0.900171342,1375747.147,1537499656,37.81575568,-122.2641097
19339,0.112731934,0.012708489,0.554794312,0.307796729,-0.216094971,0.046697036,0.605972156,1375747.207,1537499656,37.81575568,-122.2641097
19340,0.364242554,0.132672638,1.229629517,1.511988749,-0.460891724,0.212421181,1.362748168,1375747.267,1537499656,37.81575568,-122.2641097
19341,0.280517578,0.078690112,1.00630188,1.012643474,-0.184524536,0.034049304,1.060840652,1375747.326,1537499656,37.81575568,-122.2641097
19342,0.290130615,0.084175774,0.671844482,0.451375008,-0.103759766,0.010766089,0.739132512,1375747.386,1537499656,37.81575568,-122.2641097
19343,0.350799561,0.123060332,0.8309021,0.6903983,-0.300796509,0.09047854,0.950756105,1375747.446,1537499656,37.81575568,-122.2641097
19344,0.321640015,0.103452299,1.085464478,1.178233133,-0.280532837,0.078698673,1.166355051,1375747.505,1537499656,37.81575568,-122.2641097
19345,0.28692627,0.082326684,0.701675415,0.492348388,-0.025680542,0.00065949,0.758508116,1375747.565,1537499657,37.81573335,-122.2641235
19346,0.363586426,0.132195089,0.835861206,0.698663956,-0.160507202,0.025762562,0.92553855,1375747.625,1537499657,37.81573335,-122.2641235
19347,0.206054688,0.042458534,0.935256958,0.874705577,-0.22833252,0.05213574,0.98453027,1375747.684,1537499657,37.81573335,-122.2641235
19348,0.176010132,0.030979567,0.878616333,0.771966661,-0.21723938,0.047192948,0.922029921,1375747.744,1537499657,37.81573335,-122.2641235
19349,0.277191162,0.07683494,1.044311523,1.090586557,-0.209945679,0.044077188,1.10068101,1375747.804,1537499657,37.81573335,-122.2641235
19350,0.112411499,0.012636345,0.688934326,0.474630506,-0.102462769,0.010498619,0.70552496,1375747.863,1537499657,37.81573335,-122.2641235
19351,0.126327515,0.015958641,0.773757935,0.598701342,-0.454833984,0.206873953,0.906385093,1375747.923,1537499657,37.81573335,-122.2641235
19352,0.266357422,0.070946276,1.2003479,1.440835081,-0.440002441,0.193602148,1.305903329,1375747.983,1537499657,37.81573335,-122.2641235
19353,-0.01763916,0.00031114,0.520736694,0.271166704,-0.039321899,0.001546212,0.522517039,1375748.042,1537499657,37.81573335,-122.2641235
19354,0.203659058,0.041477012,1.361099243,1.852591149,-0.365615845,0.133674946,1.423988451,1375748.102,1537499657,37.81573335,-122.2641235
19355,0.229598999,0.0527157,1.11505127,1.243339335,-0.314544678,0.098938354,1.181098383,1375748.161,1537499657,37.81573335,-122.2641235
19356,0.223449707,0.049929772,0.595703125,0.354862213,-0.12260437,0.015031832,0.647938127,1375748.221,1537499657,37.81573335,-122.2641235
19357,0.070739746,0.005004112,0.676208496,0.45725793,-0.015304565,0.00023423,0.680070784,1375748.281,1537499657,37.81573335,-122.2641235
19358,0.321243286,0.103197249,1.395065308,1.946207214,-0.439422607,0.193092228,1.497496808,1375748.34,1537499657,37.81573335,-122.2641235
19359,0.290237427,0.084237764,1.273422241,1.621604204,-0.415924072,0.172992834,1.37070595,1375748.4,1537499657,37.81573335,-122.2641235
19360,0.172592163,0.029788055,0.2215271,0.049074256,0.014404297,0.000207484,0.281193518,1375748.46,1537499657,37.81573335,-122.2641235
19361,0.194137573,0.037689397,0.402404785,0.161929611,-0.244628906,0.059843302,0.50937443,1375748.519,1537499658,37.81571016,-122.2641379
19362,0.290908813,0.084627937,0.846054077,0.715807501,-0.42024231,0.176603599,0.988452851,1375748.579,1537499658,37.81571016,-122.2641379
19363,0.462249756,0.213674837,1.238800049,1.534625561,-0.261413574,0.068337057,1.347826938,1375748.639,1537499658,37.81571016,-122.2641379
19364,0.289901733,0.084043015,0.529418945,0.280284419,0.094161987,0.00886648,0.610895993,1375748.698,1537499658,37.81571016,-122.2641379
19365,0.378479004,0.143246356,1.12348938,1.262228387,-0.235977173,0.055685226,1.208784501,1375748.758,1537499658,37.81571016,-122.2641379
19366,0.418075562,0.174787176,1.443374634,2.083330334,-0.16835022,0.028341797,1.512104264,1375748.818,1537499658,37.81571016,-122.2641379
19367,0.198501587,0.03940288,0.629959106,0.396848475,0.070495605,0.00496963,0.664244673,1375748.877,1537499658,37.81571016,-122.2641379
19368,0.229873657,0.052841898,0.782806396,0.612785854,-0.188476563,0.035523415,0.837347698,1375748.937,1537499658,37.81571016,-122.2641379
19369,0.286590576,0.082134158,1.083740234,1.174492895,-0.361618042,0.130767608,1.177877184,1375748.997,1537499658,37.81571016,-122.2641379
19370,0.155776978,0.024266467,0.921691895,0.849515949,-0.345123291,0.119110086,0.996439914,1375749.056,1537499658,37.81571016,-122.2641379
19371,0.109008789,0.011882916,0.789642334,0.623535016,-0.130722046,0.017088253,0.80777855,1375749.116,1537499658,37.81571016,-122.2641379
19372,0.217819214,0.04744521,1.306182861,1.706113666,-0.205657959,0.042295196,1.3400948,1375749.176,1537499658,37.81571016,-122.2641379
19373,0.102935791,0.010595777,0.767501831,0.589059061,-0.219558716,0.04820603,0.804898048,1375749.235,1537499658,37.81571016,-122.2641379
19374,0.30696106,0.094225092,1.334899902,1.781957748,-0.522766113,0.273284409,1.466106152,1375749.295,1537499658,37.81571016,-122.2641379
19375,-0.017028809,0.00028998,0.662368774,0.438732393,0.000366211,1.34E-07,0.662587735,1375749.355,1537499658,37.81571016,-122.2641379
19376,0.202148438,0.040863991,1.108856201,1.229562074,-0.057693481,0.003328538,1.128607373,1375749.414,1537499658,37.81571016,-122.2641379
19377,0.279907227,0.078348056,1.145645142,1.312502791,-0.333221436,0.111036525,1.225515146,1375749.474,1537499658,37.81571016,-122.2641379
19378,0.317703247,0.100935353,0.898193359,0.80675131,-0.199371338,0.03974893,0.973363033,1375749.533,1537499659,37.8156821,-122.2641553
19379,0.358047485,0.128198002,0.882247925,0.778361401,-0.288848877,0.083433674,0.994983958,1375749.593,1537499659,37.8156821,-122.2641553
19380,0.380081177,0.144461701,1.107635498,1.226856396,-0.188720703,0.035615504,1.186142319,1375749.653,1537499659,37.8156821,-122.2641553
19381,0.303161621,0.091906968,0.813644409,0.662017224,0.010848999,0.000117701,0.868355857,1375749.712,1537499659,37.8156821,-122.2641553
19382,0.437698364,0.191579858,1.219604492,1.487435117,-0.336196899,0.113028355,1.338672226,1375749.772,1537499659,37.8156821,-122.2641553
19383,0.203063965,0.041234974,0.6771698,0.458558938,0.010528564,0.000110851,0.707039435,1375749.832,1537499659,37.8156821,-122.2641553
19384,0.216995239,0.047086934,1.077133179,1.160215885,-0.160308838,0.025698924,1.110406116,1375749.891,1537499659,37.8156821,-122.2641553
19385,0.250854492,0.062927976,0.796401978,0.634256111,-0.308364868,0.095088892,0.890097174,1375749.951,1537499659,37.8156821,-122.2641553
19386,-0.030136108,0.000908185,0.36517334,0.133351568,-0.106414795,0.011324109,0.381554533,1375750.011,1537499659,37.8156821,-122.2641553
19387,0.115493774,0.013338812,0.928573608,0.862248945,-0.070785522,0.00501059,0.938402018,1375750.07,1537499659,37.8156821,-122.2641553
19388,0.247116089,0.061066361,0.97744751,0.955403635,-0.172027588,0.029593491,1.022772451,1375750.13,1537499659,37.8156821,-122.2641553
19389,0.086746216,0.007524906,0.776168823,0.602438042,-0.105438232,0.011117221,0.788086397,1375750.19,1537499659,37.8156821,-122.2641553
19390,0.172912598,0.029898767,1.283843994,1.648255401,-0.390304565,0.152337653,1.352956696,1375750.249,1537499659,37.8156821,-122.2641553
19391,0.186462402,0.034768227,0.841491699,0.708108279,-0.181091309,0.032794062,0.880721618,1375750.309,1537499659,37.8156821,-122.2641553
19392,0.224761963,0.05051794,0.700775146,0.491085805,-0.201705933,0.040685283,0.763078652,1375750.369,1537499659,37.8156821,-122.2641553
19393,0.327453613,0.107225869,0.807006836,0.651260033,-0.166046143,0.027571322,0.886598682,1375750.428,1537499659,37.8156821,-122.2641553
19394,0.229095459,0.052484729,0.934356689,0.873022422,-0.165435791,0.027369001,0.976153755,1375750.488,1537499659,37.8156821,-122.2641553
19395,0.20539856,0.042188568,0.897262573,0.805080125,-0.20324707,0.041309371,0.942644188,1375750.548,1537499660,37.81568052,-122.2641563
19396,0.441665649,0.195068546,1.353530884,1.832045854,-0.119400024,0.014256366,1.428765469,1375750.607,1537499660,37.81568052,-122.2641563
19397,0.36946106,0.136501475,0.948013306,0.898729228,0.024520874,0.000601273,1.017758309,1375750.667,1537499660,37.81568052,-122.2641563
19398,0.266876221,0.071222917,0.837677002,0.70170276,-0.050262451,0.002526314,0.880597519,1375750.727,1537499660,37.81568052,-122.2641563
19399,0.24446106,0.05976121,0.91078186,0.829523597,-0.376113892,0.14146166,1.015256847,1375750.786,1537499660,37.81568052,-122.2641563
19400,0.159881592,0.025562123,0.982879639,0.966052385,-0.410736084,0.168704131,1.077180876,1375750.846,1537499660,37.81568052,-122.2641563
19401,0.069885254,0.004883949,1.009765625,1.019626617,0.127670288,0.016299702,1.020201092,1375750.906,1537499660,37.81568052,-122.2641563
19402,0.108276367,0.011723772,0.762588501,0.581541222,-0.030899048,0.000954751,0.770856501,1375750.965,1537499660,37.81568052,-122.2641563
19403,0.083190918,0.006920729,1.111679077,1.23583037,-0.306030273,0.093654528,1.156030115,1375751.025,1537499660,37.81568052,-122.2641563
19404,0.114685059,0.013152663,1.149627686,1.321643816,-0.199478149,0.039791532,1.172428254,1375751.085,1537499660,37.81568052,-122.2641563
19405,0.216781616,0.046994269,0.825820923,0.681980197,-0.181488037,0.032937908,0.872875921,1375751.144,1537499660,37.81568052,-122.2641563
19406,0.368209839,0.135578486,0.726852417,0.528314436,-0.129714966,0.016825972,0.825056904,1375751.204,1537499660,37.81568052,-122.2641563
19407,0.244491577,0.059776131,0.553207397,0.306038424,-0.13092041,0.017140154,0.618833345,1375751.263,1537499660,37.81568052,-122.2641563
19408,0.336257935,0.113069399,0.718399048,0.516097192,-0.266983032,0.071279939,0.836926837,1375751.323,1537499660,37.81568052,-122.2641563
19409,0.749526978,0.561790691,2.357620239,5.558373191,-0.52583313,0.276500481,2.529162779,1375751.383,1537499660,37.81568052,-122.2641563
19410,0.427856445,0.183061138,1.507476807,2.272486324,0.114303589,0.01306531,1.571181966,1375751.442,1537499660,37.81568052,-122.2641563
19411,0.083374023,0.006951228,0.56463623,0.318814072,0.049057007,0.00240659,0.572862889,1375751.502,1537499660,37.81568052,-122.2641563
19412,0.347106934,0.120483224,1.134490967,1.287069754,-0.637527466,0.40644127,1.346846037,1375751.562,1537499661,37.81564612,-122.264165
19413,0.327163696,0.107036084,1.153198242,1.329866185,-0.083084106,0.006902969,1.20158447,1375751.621,1537499661,37.81564612,-122.264165
19414,0.3490448,0.121832272,1.616973877,2.614604519,-0.083297729,0.006938512,1.656313769,1375751.681,1537499661,37.81564612,-122.264165
19415,0.058746338,0.003451132,-0.132461548,0.017546062,0.030990601,0.000960417,0.148181008,1375751.741,1537499661,37.81564612,-122.264165
19416,0.255218506,0.065136486,0.84387207,0.712120071,-0.10345459,0.010702852,0.887670777,1375751.8,1537499661,37.81564612,-122.264165
19417,-0.074905396,0.005610818,0.369628906,0.136625528,0.311279297,0.096894801,0.489010375,1375751.86,1537499661,37.81564612,-122.264165
19418,0.290359497,0.084308637,1.385757446,1.920323699,0.187255859,0.035064757,1.428179643,1375751.92,1537499661,37.81564612,-122.264165
19419,0.175048828,0.030642092,0.107681274,0.011595257,-0.249069214,0.062035473,0.322913026,1375751.979,1537499661,37.81564612,-122.264165
19420,2.219894409,4.927931187,5.94128418,35.29885771,-1.220291138,1.489110461,6.458784666,1375752.039,1537499661,37.81564612,-122.264165
19421,-0.154495239,0.023868779,0.685455322,0.469848998,0.323196411,0.10445592,0.773416898,1375752.099,1537499661,37.81564612,-122.264165
19422,0.364883423,0.133139912,0.945388794,0.893759972,-0.388061523,0.150591746,1.085122864,1375752.158,1537499661,37.81564612,-122.264165
19423,0.056854248,0.003232406,0.975448608,0.951499987,-0.203048706,0.041228777,0.997978542,1375752.218,1537499661,37.81564612,-122.264165
19424,-0.004806519,2.31E-05,1.239196777,1.535608652,-0.182693481,0.033376908,1.25260076,1375752.278,1537499661,37.81564612,-122.264165
19425,-0.020370483,0.000414957,0.758117676,0.574742411,-0.067703247,0.00458373,0.761407313,1375752.337,1537499661,37.81564612,-122.264165
19426,1.321578979,1.746570998,4.463119507,19.91943573,-0.65737915,0.432147347,4.700867375,1375752.397,1537499661,37.81564612,-122.264165
19427,0.001953125,3.81E-06,0.050247192,0.00252478,0.251953125,0.063480377,0.256922113,1375752.457,1537499661,37.81564612,-122.264165
19428,0.192321777,0.036987666,0.652862549,0.426229508,-0.094772339,0.008981796,0.687167352,1375752.516,1537499662,37.81554037,-122.2640045
19429,0.582778931,0.339631282,1.545089722,2.387302249,-0.373641968,0.13960832,1.693086487,1375752.576,1537499662,37.81554037,-122.2640045
19430,0.390045166,0.152135232,0.771194458,0.594740892,0.112167358,0.012581516,0.871468668,1375752.636,1537499662,37.81554037,-122.2640045
19431,0.24937439,0.062187586,0.63923645,0.408623239,-0.048034668,0.002307329,0.687835849,1375752.695,1537499662,37.81554037,-122.2640045
19432,0.181793213,0.033048772,0.735626221,0.541145937,-0.007980347,6.37E-05,0.757798387,1375752.755,1537499662,37.81554037,-122.2640045
19433,0.188690186,0.035603986,1.143234253,1.306984557,-0.143707275,0.020651781,1.16757883,1375752.815,1537499662,37.81554037,-122.2640045
19434,-0.022491455,0.000505866,0.533889771,0.285038288,-0.33190918,0.110163704,0.629053143,1375752.874,1537499662,37.81554037,-122.2640045
19435,0.260406494,0.067811542,1.52015686,2.310876879,-0.680404663,0.462950505,1.685716146,1375752.934,1537499662,37.81554037,-122.2640045
19436,0.221694946,0.049148649,1.166046143,1.359663608,-0.065322876,0.004267078,1.188730135,1375752.993,1537499662,37.81554037,-122.2640045
19437,0.141891479,0.020133192,0.763061523,0.582262888,-0.005950928,3.54E-05,0.776164604,1375753.053,1537499662,37.81554037,-122.2640045
19438,0.192260742,0.036964193,1.012908936,1.025984513,-0.223403931,0.049909316,1.054920861,1375753.113,1537499662,37.81554037,-122.2640045
19439,0.376678467,0.141886668,1.173202515,1.376404141,-0.368865967,0.136062102,1.28621651,1375753.172,1537499662,37.81554037,-122.2640045
19440,0.349884033,0.122418837,0.997467041,0.994940498,0.056732178,0.00321854,1.058573509,1375753.232,1537499662,37.81554037,-122.2640045
19441,0.116821289,0.013647214,0.201370239,0.040549973,0.014633179,0.00021413,0.233262334,1375753.292,1537499662,37.81554037,-122.2640045
19442,0.198776245,0.039511996,0.912338257,0.832361095,-0.297424316,0.088461224,0.979966486,1375753.351,1537499662,37.81554037,-122.2640045
19443,0.123168945,0.015170589,0.459075928,0.210750708,0.194259644,0.037736809,0.51347649,1375753.411,1537499662,37.81554037,-122.2640045
19444,0.024414063,0.000596046,0.067703247,0.00458373,0.079498291,0.006319978,0.107236908,1375753.471,1537499662,37.81554037,-122.2640045
19445,0.356338501,0.126977127,1.303466797,1.699025691,-0.383590698,0.147141824,1.40468667,1375753.53,1537499662,37.81554037,-122.2640045
19446,0.322662354,0.104110995,1.151519775,1.325997792,-0.197906494,0.03916698,1.21213686,1375753.59,1537499663,37.8155372,-122.2639914
19447,0.432220459,0.186814525,1.305358887,1.703961824,-0.011154175,0.000124416,1.375100274,1375753.65,1537499663,37.8155372,-122.2639914
19448,0.32711792,0.107006134,1.144851685,1.310685381,-0.193832397,0.037570998,1.206342618,1375753.709,1537499663,37.8155372,-122.2639914
19449,0.260650635,0.067938754,0.916473389,0.839923473,-0.113555908,0.012894944,0.959560926,1375753.769,1537499663,37.8155372,-122.2639914
19450,0.137466431,0.01889702,1.025680542,1.052020574,-0.325424194,0.105900906,1.084812657,1375753.829,1537499663,37.8155372,-122.2639914
19451,0.145263672,0.021101534,1.356933594,1.841268779,-0.078231812,0.006120216,1.366927405,1375753.888,1537499663,37.8155372,-122.2639914
19452,0.22416687,0.050250786,0.729187012,0.531713698,-0.257873535,0.06649876,0.805272155,1375753.948,1537499663,37.8155372,-122.2639914
19453,0.409240723,0.167477969,0.816741943,0.667067401,-0.377105713,0.142208719,0.988308702,1375754.008,1537499663,37.8155372,-122.2639914
19454,0.417358398,0.174188032,1.381851196,1.909512728,-0.231185913,0.053446926,1.461898658,1375754.067,1537499663,37.8155372,-122.2639914
19455,0.134506226,0.018091925,0.974411011,0.949476818,-0.246231079,0.060629744,1.014001227,1375754.127,1537499663,37.8155372,-122.2639914
19456,0.290679932,0.084494823,0.914825439,0.836905584,-0.055374146,0.003066296,0.961491915,1375754.187,1537499663,37.8155372,-122.2639914
19457,0.241653442,0.058396386,1.256317139,1.578332754,0.11151123,0.012434754,1.284197763,1375754.246,1537499663,37.8155372,-122.2639914
19458,0.527618408,0.278381184,1.397842407,1.953963395,-0.329330444,0.108458541,1.52996834,1375754.306,1537499663,37.8155372,-122.2639914
19459,0.369537354,0.136557856,1.42010498,2.016698154,-0.301986694,0.091195963,1.498149516,1375754.366,1537499663,37.8155372,-122.2639914
19460,0.917724609,0.842218458,4.039794922,16.31994301,-0.419815063,0.176244687,4.163941181,1375754.425,1537499663,37.8155372,-122.2639914
19461,0.041732788,0.001741626,0.400115967,0.160092787,0.026794434,0.000717942,0.40317782,1375754.485,1537499664,37.81551279,-122.2638915
19462,0.26121521,0.068233386,0.999954224,0.99990845,-0.324554443,0.105335586,1.083271629,1375754.545,1537499664,37.81551279,-122.2638915
19463,0.241073608,0.058116484,0.927749634,0.860719383,-0.050827026,0.002583387,0.959905857,1375754.604,1537499664,37.81551279,-122.2638915
19464,0.228118896,0.052038231,1.30355835,1.699264372,-0.337799072,0.114108213,1.36580043,1375754.664,1537499664,37.81551279,-122.2638915
19465,0.102493286,0.010504874,1.520629883,2.312315241,0.209381104,0.043840447,1.53839545,1375754.724,1537499664,37.81551279,-122.2638915
19466,0.23765564,0.056480203,0.881164551,0.776450966,-0.374298096,0.140099065,0.986422949,1375754.783,1537499664,37.81551279,-122.2638915
19467,0.320999146,0.103040452,0.178771973,0.031959418,0.027404785,0.000751022,0.368443879,1375754.843,1537499664,37.81551279,-122.2638915
19468,0.203704834,0.041495659,0.524368286,0.274962099,-0.167602539,0.028090611,0.586982427,1375754.903,1537499664,37.81551279,-122.2638915
19469,0.295379639,0.087249131,1.064224243,1.132573239,-0.158813477,0.02522172,1.115815438,1375754.962,1537499664,37.81551279,-122.2638915
19470,0.381774902,0.145752076,1.360992432,1.8523004,-0.250457764,0.062729092,1.435542255,1375755.022,1537499664,37.81551279,-122.2638915
19471,0.212478638,0.045147172,0.950668335,0.903770283,-0.014038086,0.000197068,0.974225088,1375755.082,1537499664,37.81551279,-122.2638915
19472,0.214538574,0.0460268,0.871154785,0.758910659,-0.248886108,0.061944295,0.931064849,1375755.141,1537499664,37.81551279,-122.2638915
19473,0.397323608,0.157866049,1.512985229,2.289124303,-0.322753906,0.104170084,1.597235248,1375755.201,1537499664,37.81551279,-122.2638915
19474,0.183059692,0.033510851,0.930480957,0.865794811,0.044113159,0.001945971,0.949342737,1375755.261,1537499664,37.81551279,-122.2638915
19475,0.140274048,0.019676809,0.669570923,0.448325221,-0.200622559,0.040249411,0.712917555,1375755.32,1537499664,37.81551279,-122.2638915
19476,0.294616699,0.086798999,1.042922974,1.08768833,-0.180923462,0.032733299,1.098735923,1375755.38,1537499664,37.81551279,-122.2638915
19477,0.464035034,0.215328513,1.400817871,1.962290708,-0.395996094,0.156812906,1.527884854,1375755.44,1537499664,37.81551279,-122.2638915
19478,0.0390625,0.001525879,0.088699341,0.007867573,0.209884644,0.044051564,0.231181781,1375755.499,1537499664,37.81551279,-122.2638915
19479,0.692932129,0.480154935,1.995925903,3.98372021,-0.290893555,0.08461906,2.132719908,1375755.559,1537499665,37.81550076,-122.263854
19480,0.158126831,0.025004095,0.775115967,0.600804762,0.10774231,0.011608405,0.798384157,1375755.619,1537499665,37.81550076,-122.263854
19481,0.218322754,0.047664825,0.920913696,0.848082035,-0.220199585,0.048487857,0.971717406,1375755.678,1537499665,37.81550076,-122.263854
19482,0.20475769,0.041925712,0.692871094,0.480070353,0.009338379,8.72E-05,0.722553299,1375755.738,1537499665,37.81550076,-122.263854
19483,0.234359741,0.054924488,0.99772644,0.995458049,-0.070922852,0.005030051,1.027332754,1375755.798,1537499665,37.81550076,-122.263854
19484,0.17024231,0.028982444,0.740524292,0.548376227,-0.104431152,0.010905866,0.766984052,1375755.857,1537499665,37.81550076,-122.263854
19485,0.229614258,0.052722707,0.894546509,0.800213457,-0.173355103,0.030051992,0.939674495,1375755.917,1537499665,37.81550076,-122.263854
19486,0.265045166,0.07024894,0.838607788,0.703263022,-0.267150879,0.071369592,0.919174387,1375755.977,1537499665,37.81550076,-122.263854
19487,0.21307373,0.045400414,0.810638428,0.657134661,0.055328369,0.003061228,0.8399978,1375756.036,1537499665,37.81550076,-122.263854
19488,0.11920166,0.014209036,0.56741333,0.321957887,-0.00730896,5.34E-05,0.579845103,1375756.096,1537499665,37.81550076,-122.263854
19489,0.215652466,0.046505986,0.645843506,0.417113834,0.056930542,0.003241087,0.683272206,1375756.156,1537499665,37.81550076,-122.263854
19490,0.141418457,0.01999918,0.492340088,0.242398762,-0.064804077,0.004199568,0.516330815,1375756.215,1537499665,37.81550076,-122.263854
19491,0.204971313,0.042013239,0.88444519,0.782243294,-0.270935059,0.073405806,0.947450442,1375756.275,1537499665,37.81550076,-122.263854
19492,0.213104248,0.045413421,0.979537964,0.959494623,-0.233184814,0.054375157,1.029214847,1375756.335,1537499665,37.81550076,-122.263854
19493,0.286346436,0.081994281,1.269378662,1.611322188,0.074768066,0.005590264,1.303421165,1375756.394,1537499665,37.81550076,-122.263854
19494,0.194610596,0.037873284,0.960510254,0.922579948,-0.288162231,0.083037471,1.021513927,1375756.454,1537499665,37.81550076,-122.263854
19495,0.185791016,0.034518302,0.808883667,0.654292787,-0.324951172,0.105593264,0.89129364,1375756.514,1537499665,37.81550076,-122.263854
19496,0.423370361,0.179242463,1.708343506,2.918437534,-0.157318115,0.024748989,1.767039611,1375756.573,1537499666,37.81547466,-122.2637728
19497,0.320907593,0.102981683,1.333694458,1.778740907,-0.149581909,0.022374748,1.379890336,1375756.633,1537499666,37.81547466,-122.2637728
19498,0.222457886,0.049487511,1.079071045,1.16439432,0.110214233,0.012147177,1.107261942,1375756.693,1537499666,37.81547466,-122.2637728
19499,0.561965942,0.31580572,1.717285156,2.949068307,0.392425537,0.153997802,1.849019153,1375756.752,1537499666,37.81547466,-122.2637728
19500,0.394256592,0.15543826,1.03868103,1.078858282,-0.238967896,0.057105655,1.136398785,1375756.812,1537499666,37.81547466,-122.2637728
19501,0.088287354,0.007794657,-0.195953369,0.038397723,-0.079025269,0.006244993,0.22899208,1375756.872,1537499666,37.81547466,-122.2637728
19502,0.320968628,0.10302086,1.573028564,2.474418863,-0.463348389,0.21469173,1.670967221,1375756.931,1537499666,37.81547466,-122.2637728
19503,0.224136353,0.050237105,0.779342651,0.607374968,-0.073181152,0.005355481,0.814228195,1375756.991,1537499666,37.81547466,-122.2637728
19504,0.195983887,0.038409684,1.049041748,1.100488589,-0.001693726,2.87E-06,1.067193114,1375757.051,1537499666,37.81547466,-122.2637728
19505,0.178909302,0.032008538,0.796875,0.635009766,-0.207077026,0.042880895,0.842555161,1375757.11,1537499666,37.81547466,-122.2637728
19506,0.203765869,0.041520529,0.832290649,0.692707724,-0.048706055,0.00237228,0.858254352,1375757.17,1537499666,37.81547466,-122.2637728
19507,0.322860718,0.104239043,1.251617432,1.566546196,-0.175079346,0.030652777,1.304391819,1375757.23,1537499666,37.81547466,-122.2637728
19508,0.41696167,0.173857034,1.314559937,1.728067828,0.031661987,0.001002481,1.379466326,1375757.289,1537499666,37.81547466,-122.2637728
19509,0.707473755,0.500519114,2.416687012,5.840376114,-0.206878662,0.042798781,2.526597318,1375757.349,1537499666,37.81547466,-122.2637728
19510,0.339767456,0.115441924,1.472503662,2.168267035,0.129150391,0.016679823,1.516703261,1375757.408,1537499666,37.81547466,-122.2637728
19511,-0.079452515,0.006312702,-0.099319458,0.009864355,0.145431519,0.021150327,0.19320296,1375757.468,1537499666,37.81547466,-122.2637728
19512,0.163192749,0.026631873,0.85458374,0.730313369,-0.211334229,0.044662156,0.895325303,1375757.528,1537499667,37.81544506,-122.2637034
19513,0.402023315,0.161622746,1.255233765,1.575611805,-0.031494141,0.000991881,1.318418155,1375757.587,1537499667,37.81544506,-122.2637034
19514,0.322601318,0.10407161,1.1353302,1.288974663,-0.403808594,0.163061381,1.247440441,1375757.647,1537499667,37.81544506,-122.2637034
19515,0.317596436,0.100867496,0.88873291,0.789846185,0.093017578,0.00865227,0.948349066,1375757.707,1537499667,37.81544506,-122.2637034
19516,0.429504395,0.184474025,1.82434082,3.328219428,-0.368377686,0.13570212,1.910077373,1375757.766,1537499667,37.81544506,-122.2637034
19517,0.294540405,0.08675405,1.039398193,1.080348604,-0.081558228,0.006651745,1.083399464,1375757.826,1537499667,37.81544506,-122.2637034
19518,0.223999023,0.050175562,0.972640991,0.946030497,0.01675415,0.000280702,0.998241835,1375757.886,1537499667,37.81544506,-122.2637034
19519,0.32774353,0.107415821,1.234130859,1.523078977,-0.381134033,0.145263151,1.332575683,1375757.945,1537499667,37.81544506,-122.2637034
19520,0.123779297,0.015321314,0.701248169,0.491748995,0.324234009,0.105127693,0.782430829,1375758.005,1537499667,37.81544506,-122.2637034
19521,0.357955933,0.12813245,1.378662109,1.900709211,-0.549407959,0.301849105,1.526660003,1375758.065,1537499667,37.81544506,-122.2637034
19522,0.10218811,0.01044241,0.424285889,0.180018516,0.201721191,0.040691439,0.480783074,1375758.124,1537499667,37.81544506,-122.2637034
19523,0.202575684,0.041036908,0.790817261,0.62539194,-0.323852539,0.104880467,0.878242173,1375758.184,1537499667,37.81544506,-122.2637034
19524,0.156677246,0.024547759,0.961029053,0.923576841,-0.264251709,0.069828966,1.008936849,1375758.244,1537499667,37.81544506,-122.2637034
19525,0.328613281,0.107986688,0.765167236,0.585480899,-0.065979004,0.004353229,0.8353567,1375758.303,1537499667,37.81544506,-122.2637034
19526,0.297317505,0.088397699,1.232757568,1.519691221,-0.045516968,0.002071794,1.268921083,1375758.363,1537499667,37.81544506,-122.2637034
19527,0.248687744,0.061845594,0.879302979,0.773173729,-0.28704834,0.082396749,0.957818392,1375758.423,1537499667,37.81544506,-122.2637034
19528,0.256332397,0.065706298,1.213607788,1.472843863,-0.102172852,0.010439292,1.244584048,1375758.482,1537499667,37.81544506,-122.2637034
19529,0.419219971,0.175745384,1.414245605,2.000090631,-0.189575195,0.035938755,1.487203675,1375758.542,1537499668,37.81541069,-122.2636359
19530,0.268783569,0.072244607,0.920471191,0.847267213,-0.18460083,0.034077466,0.976518964,1375758.602,1537499668,37.81541069,-122.2636359
19531,0.325317383,0.1058314,1.324768066,1.755010429,-0.179046631,0.032057696,1.375826851,1375758.661,1537499668,37.81541069,-122.2636359
19532,0.275222778,0.075747578,1.010223389,1.020551296,-0.086685181,0.007514321,1.050625144,1375758.721,1537499668,37.81541069,-122.2636359
19533,0.153533936,0.02357267,0.563903809,0.317987506,-0.258178711,0.066656247,0.638918165,1375758.781,1537499668,37.81541069,-122.2636359
19534,0.183319092,0.033605889,0.984313965,0.968873982,-0.228942871,0.052414838,1.027080673,1375758.84,1537499668,37.81541069,-122.2636359
19535,0.41885376,0.175438472,1.546890259,2.392869473,-0.416900635,0.173806139,1.655932995,1375758.9,1537499668,37.81541069,-122.2636359
19536,0.264419556,0.069917702,1.040985107,1.083649993,-0.16696167,0.027876199,1.086942452,1375758.96,1537499668,37.81541069,-122.2636359
19537,0.147247314,0.021681771,0.750808716,0.563713728,-0.131088257,0.017184131,0.776260028,1375759.019,1537499668,37.81541069,-122.2636359
19538,0.270965576,0.073422343,1.03477478,1.070758845,-0.382080078,0.145985186,1.135854909,1375759.079,1537499668,37.81541069,-122.2636359
19539,0.283813477,0.08055009,1.138305664,1.295739785,-0.083633423,0.006994549,1.176131125,1375759.139,1537499668,37.81541069,-122.2636359
19540,0.095901489,0.009197096,0.270980835,0.073430613,-0.039321899,0.001546212,0.290127421,1375759.198,1537499668,37.81541069,-122.2636359
19541,0.156570435,0.024514301,0.880111694,0.774596594,-0.299911499,0.089946907,0.942898617,1375759.258,1537499668,37.81541069,-122.2636359
19542,0.299041748,0.089425967,1.011474609,1.023080885,-0.040374756,0.001630121,1.05552687,1375759.317,1537499668,37.81541069,-122.2636359
19543,-0.059387207,0.00352684,-0.193725586,0.037529603,0.178344727,0.031806842,0.269932,1375759.377,1537499668,37.81541069,-122.2636359
19544,0.420715332,0.177001391,1.746536255,3.05038889,-0.354110718,0.125394401,1.831061081,1375759.437,1537499668,37.81541069,-122.2636359
19545,0.238845825,0.057047328,0.735565186,0.541056143,-0.095565796,0.009132821,0.779253677,1375759.496,1537499668,37.81541069,-122.2636359
19546,0.102890015,0.010586355,0.441635132,0.19504159,-0.220230103,0.048501298,0.504112332,1375759.556,1537499669,37.81537148,-122.263567
19547,0.325744629,0.106109563,1.338562012,1.79174826,-0.433685303,0.188082942,1.444278631,1375759.616,1537499669,37.81537148,-122.263567
19548,0.368331909,0.135668395,1.315414429,1.73031512,-0.060668945,0.003680721,1.36735666,1375759.675,1537499669,37.81537148,-122.263567
19549,0.346618652,0.12014449,1.302581787,1.696719312,-0.487350464,0.237510475,1.433308856,1375759.735,1537499669,37.81537148,-122.263567
19550,0.531402588,0.282388711,1.851852417,3.429357374,-0.026992798,0.000728611,1.92677832,1375759.795,1537499669,37.81537148,-122.263567
19551,0.369522095,0.136546579,1.360778809,1.851718967,-0.369766235,0.136727069,1.45773544,1375759.854,1537499669,37.81537148,-122.263567
19552,0.241439819,0.058293186,1.065841675,1.136018476,-0.019485474,0.000379684,1.093019371,1375759.914,1537499669,37.81537148,-122.263567
19553,0.435165405,0.18936893,1.654159546,2.736243804,-0.575042725,0.330674136,1.804518459,1375759.974,1537499669,37.81537148,-122.263567
19554,0.21257019,0.045186086,0.731948853,0.535749123,-0.074234009,0.005510688,0.765797556,1375760.033,1537499669,37.81537148,-122.263567
19555,-0.006851196,4.69E-05,0.046096802,0.002124915,0.087890625,0.007724762,0.099481737,1375760.093,1537499669,37.81537148,-122.263567
19556,0.247772217,0.061391072,1.366271973,1.866699104,-0.456069946,0.207999796,1.461536853,1375760.153,1537499669,37.81537148,-122.263567
19557,0.436294556,0.19035294,1.307922363,1.710660908,-0.189483643,0.035904051,1.391731978,1375760.212,1537499669,37.81537148,-122.263567
19558,0.088668823,0.00786216,0.483428955,0.233703555,-0.14805603,0.021920588,0.513309169,1375760.272,1537499669,37.81537148,-122.263567
19559,0.144424438,0.020858418,0.557373047,0.310664714,-0.291885376,0.085197073,0.645538693,1375760.332,1537499669,37.81537148,-122.263567
19560,0.276657104,0.076539153,0.96194458,0.925337375,-0.144424438,0.020858418,1.011303588,1375760.391,1537499669,37.81537148,-122.263567
19561,0.354888916,0.125946143,1.484344482,2.203278541,-0.426269531,0.181705713,1.584591555,1375760.451,1537499669,37.81537148,-122.263567
19562,0.025482178,0.000649341,0.822433472,0.676396816,0.403411865,0.162741133,0.916399089,1375760.511,1537499669,37.81537148,-122.263567
19563,0.330032349,0.108921351,1.170715332,1.370574389,-0.511352539,0.261481419,1.319460935,1375760.57,1537499670,37.8153354,-122.2635124
19564,0.212417603,0.045121238,1.395446777,1.947271707,-0.408096313,0.166542601,1.469331667,1375760.63,1537499670,37.8153354,-122.2635124
19565,0.036239624,0.00131331,0.11668396,0.013615147,-0.000732422,5.36E-07,0.12218426,1375760.69,1537499670,37.8153354,-122.2635124
19566,0.399856567,0.159885274,1.396896362,1.951319446,-0.308364868,0.095088892,1.485359758,1375760.749,1537499670,37.8153354,-122.2635124
19567,0.419677734,0.1761294,1.541534424,2.37632838,-0.094207764,0.008875103,1.600416472,1375760.809,1537499670,37.8153354,-122.2635124
19568,0.239471436,0.057346569,1.205078125,1.452213287,-0.094894409,0.009004949,1.232300615,1375760.869,1537499670,37.8153354,-122.2635124
19569,-0.022705078,0.000515521,-0.07925415,0.00628122,0.006347656,4.03E-05,0.082686357,1375760.928,1537499670,37.8153354,-122.2635124
19570,0.306213379,0.093766633,1.246398926,1.553510283,-0.242172241,0.058647394,1.306110375,1375760.988,1537499670,37.8153354,-122.2635124
19571,0.183227539,0.033572331,0.679199219,0.461311579,-0.112136841,0.012574671,0.712361272,1375761.048,1537499670,37.8153354,-122.2635124
19572,-0.034454346,0.001187102,-0.229873657,0.052841898,-0.035079956,0.001230603,0.235073613,1375761.107,1537499670,37.8153354,-122.2635124
19573,0.372695923,0.138902251,1.251205444,1.565515063,-0.231277466,0.053489266,1.325860694,1375761.167,1537499670,37.8153354,-122.2635124
19574,0.479309082,0.229737196,1.795394897,3.223442836,-0.431259155,0.185984459,1.907659427,1375761.226,1537499670,37.8153354,-122.2635124
19575,0.095596313,0.009138655,0.442153931,0.195500099,-0.065658569,0.004311048,0.457110273,1375761.286,1537499670,37.8153354,-122.2635124
19576,0.240753174,0.057962091,1.055999756,1.115135485,-0.21005249,0.044122049,1.103276767,1375761.346,1537499670,37.8153354,-122.2635124
19577,0.554733276,0.307729008,1.574615479,2.479413907,-0.429885864,0.184801856,1.723932937,1375761.405,1537499670,37.8153354,-122.2635124
19578,0.572052002,0.327243493,2.002914429,4.01166621,-0.301818848,0.091094617,2.104757544,1375761.465,1537499670,37.8153354,-122.2635124
19579,0.221343994,0.048993164,1.464477539,2.144694462,-0.102615356,0.010529911,1.484660748,1375761.525,1537499671,37.81527702,-122.2634405
19580,0.184310913,0.033970513,0.479705811,0.230117665,-0.200424194,0.040169858,0.551595899,1375761.584,1537499671,37.81527702,-122.2634405
19581,0.219650269,0.048246241,0.434936523,0.189169779,-0.100585938,0.010117531,0.497527437,1375761.644,1537499671,37.81527702,-122.2634405
19582,0.204223633,0.041707292,1.251098633,1.565247789,-0.374664307,0.140373343,1.321865509,1375761.704,1537499671,37.81527702,-122.2634405
19583,0.289642334,0.083892682,0.69102478,0.477515247,-0.110198975,0.012143814,0.757331989,1375761.763,1537499671,37.81527702,-122.2634405
19584,0.234985352,0.055218116,0.908126831,0.824694341,-0.369979858,0.136885095,1.0083638,1375761.823,1537499671,37.81527702,-122.2634405
19585,0.161605835,0.026116446,1.089584351,1.187194058,-0.047943115,0.002298542,1.102546619,1375761.883,1537499671,37.81527702,-122.2634405
19586,0.169174194,0.028619908,0.500152588,0.250152611,-0.138244629,0.019111577,0.545787593,1375761.942,1537499671,37.81527702,-122.2634405
19587,0.317932129,0.101080839,1.062484741,1.128873825,-0.120697021,0.014567771,1.115581657,1375762.002,1537499671,37.81527702,-122.2634405
19588,0.119552612,0.014292827,0.846817017,0.71709906,-0.075546265,0.005707238,0.858544772,1375762.062,1537499671,37.81527702,-122.2634405
19589,0.262390137,0.068848584,1.152542114,1.328353325,-0.386825562,0.149634015,1.243718587,1375762.121,1537499671,37.81527702,-122.2634405
19590,0.182128906,0.033170938,0.676986694,0.458310984,-0.485473633,0.235684648,0.852740623,1375762.181,1537499671,37.81527702,-122.2634405
19591,0.179199219,0.03211236,1.052566528,1.107896296,-0.469406128,0.220342113,1.16634076,1375762.241,1537499671,37.81527702,-122.2634405
19592,0.291061401,0.084716739,0.731124878,0.534543587,-0.16960144,0.028764648,0.804999984,1375762.3,1537499671,37.81527702,-122.2634405
19593,0.611557007,0.374001973,1.321807861,1.747176021,-0.410263062,0.16831578,1.513107324,1375762.36,1537499671,37.81527702,-122.2634405
19594,0.292221069,0.085393153,1.211212158,1.467034892,-0.403411865,0.162741133,1.309644676,1375762.42,1537499671,37.81527702,-122.2634405
19595,0.340942383,0.116241709,1.015609741,1.031463146,-0.163970947,0.026886471,1.083785646,1375762.479,1537499672,37.81520965,-122.2633716
19596,0.335769653,0.11274126,1.441055298,2.076640372,-0.201095581,0.040439433,1.493258539,1375762.539,1537499672,37.81520965,-122.2633716
19597,0.262771606,0.069048917,1.091903687,1.192253662,0.196609497,0.038655294,1.140156951,1375762.598,1537499672,37.81520965,-122.2633716
19598,-0.024139404,0.000582711,0.253128052,0.064073811,0.110061646,0.012113566,0.277074155,1375762.658,1537499672,37.81520965,-122.2633716
19599,0.095123291,0.00904844,0.618942261,0.383089522,-0.202148438,0.040863991,0.65802884,1375762.718,1537499672,37.81520965,-122.2633716
19600,0.189056396,0.035742321,0.704421997,0.49621035,-0.249984741,0.062492371,0.771002621,1375762.777,1537499672,37.81520965,-122.2633716
19601,0.325912476,0.106218942,1.151428223,1.325786953,-0.167266846,0.027978198,1.208298015,1375762.837,1537499672,37.81520965,-122.2633716
19602,-0.005783081,3.34E-05,0.127304077,0.016206328,0.154296875,0.023807526,0.200118209,1375762.897,1537499672,37.81520965,-122.2633716
19603,0.118713379,0.014092866,0.130523682,0.017036432,-0.121047974,0.014652612,0.213967077,1375762.956,1537499672,37.81520965,-122.2633716
19604,0.149230957,0.022269879,1.081771851,1.170230338,-0.330673218,0.109344777,1.140984221,1375763.016,1537499672,37.81520965,-122.2633716
19605,0.354156494,0.125426822,0.955474854,0.912932197,-0.249069214,0.062035473,1.048996898,1375763.076,1537499672,37.81520965,-122.2633716
19606,0.44241333,0.195729555,1.6587677,2.751510283,0.14465332,0.020924583,1.722836156,1375763.135,1537499672,37.81520965,-122.2633716
19607,0.328781128,0.10809703,1.177154541,1.385692813,-0.186355591,0.034728406,1.236332581,1375763.195,1537499672,37.81520965,-122.2633716
19608,0.282470703,0.079789698,1.160842896,1.347556229,-0.554275513,0.307221344,1.317029716,1375763.255,1537499672,37.81520965,-122.2633716
19609,0.391983032,0.153650697,1.634475708,2.67151084,-0.283218384,0.080212653,1.704515823,1375763.314,1537499672,37.81520965,-122.2633716
19610,0.135894775,0.01846739,0.648468018,0.42051077,-0.345733643,0.119531752,0.747335207,1375763.374,1537499672,37.81520965,-122.2633716
19611,0.182571411,0.03333232,0.8543396,0.729896152,-0.172790527,0.029856566,0.89055322,1375763.434,1537499672,37.81520965,-122.2633716
19612,-0.033737183,0.001138198,0.025146484,0.000632346,0.184677124,0.03410564,0.189410093,1375763.493,1537499672,37.81520965,-122.2633716
19613,0.095428467,0.009106592,0.233261108,0.054410745,-0.202102661,0.040845486,0.323052352,1375763.553,1537499673,37.81515221,-122.2633159
19614,0.418167114,0.174863735,1.395889282,1.948506888,-0.33895874,0.114893027,1.496082769,1375763.613,1537499673,37.81515221,-122.2633159
19615,0.06829834,0.004664663,0.488494873,0.238627241,-0.076797485,0.005897854,0.4991891,1375763.672,1537499673,37.81515221,-122.2633159
19616,0.259002686,0.067082391,1.020294189,1.041000232,-0.059692383,0.003563181,1.05434615,1375763.732,1537499673,37.81515221,-122.2633159
19617,0.258300781,0.066719293,1.030609131,1.062155181,-0.334274292,0.111739302,1.113828432,1375763.792,1537499673,37.81515221,-122.2633159
19618,0.240020752,0.057609961,0.863616943,0.745834224,-0.061340332,0.003762636,0.898446894,1375763.851,1537499673,37.81515221,-122.2633159
19619,-0.029067993,0.000844948,0.19140625,0.036636353,0.117874146,0.013894314,0.226661896,1375763.911,1537499673,37.81515221,-122.2633159
19620,0.280487061,0.078672991,0.495544434,0.245564286,0.212524414,0.045166627,0.607786068,1375763.971,1537499673,37.81515221,-122.2633159
19621,0.205474854,0.042219916,1.262176514,1.593089552,-0.49961853,0.249618676,1.372926853,1375764.03,1537499673,37.81515221,-122.2633159
19622,0.134643555,0.018128887,0.900283813,0.810510944,-0.31199646,0.097341791,0.962279389,1375764.09,1537499673,37.81515221,-122.2633159
19623,0.336654663,0.113336362,1.017074585,1.034440711,-0.375457764,0.140968533,1.135229319,1375764.15,1537499673,37.81515221,-122.2633159
19624,0.29850769,0.089106841,1.27281189,1.620050107,-0.303466797,0.092092097,1.342106197,1375764.209,1537499673,37.81515221,-122.2633159
19625,0.371902466,0.138311444,1.119857788,1.254081465,-0.064758301,0.004193638,1.181772629,1375764.269,1537499673,37.81515221,-122.2633159
19626,0.083496094,0.006971598,0.326721191,0.106746737,0.122375488,0.01497576,0.358739591,1375764.329,1537499673,37.81515221,-122.2633159
19627,-0.080123901,0.00641984,-0.017425537,0.000303649,-0.168685913,0.028454937,0.187559127,1375764.388,1537499673,37.81515221,-122.2633159
19628,0.16229248,0.026338849,0.70942688,0.503286498,-0.134185791,0.018005827,0.740021063,1375764.448,1537499673,37.81515221,-122.2633159
19629,0.152008057,0.023106449,0.66468811,0.441810284,-0.338851929,0.11482063,0.761404861,1375764.508,1537499673,37.81515221,-122.2633159
19630,0.143600464,0.020621093,1.136871338,1.292476439,-0.499710083,0.249710167,1.250123074,1375764.567,1537499674,37.81508838,-122.263264
19631,0.047653198,0.002270827,0.359649658,0.129347876,-0.004638672,2.15E-05,0.362822575,1375764.627,1537499674,37.81508838,-122.263264
19632,1.158782959,1.342777946,2.889099121,8.346893731,-0.251678467,0.063342051,3.122981545,1375764.687,1537499674,37.81508838,-122.263264
19633,0.111984253,0.012540473,0.918792725,0.844180072,-0.38218689,0.146066819,1.001392712,1375764.746,1537499674,37.81508838,-122.263264
19634,0.270019531,0.072910547,0.700714111,0.491000265,-0.132141113,0.017461274,0.762477597,1375764.806,1537499674,37.81508838,-122.263264
19635,0.38053894,0.144809885,1.244796753,1.549518956,-0.008117676,6.59E-05,1.301689186,1375764.866,1537499674,37.81508838,-122.263264
19636,0.313781738,0.098458979,1.115371704,1.244054038,-0.139068604,0.019340077,1.166984616,1375764.925,1537499674,37.81508838,-122.263264
19637,0.239181519,0.057207799,1.226318359,1.503856718,-1.53E-05,2.34E-10,1.249425675,1375764.985,1537499674,37.81508838,-122.263264
19638,0.446395874,0.199269276,1.597747803,2.552798042,-0.117050171,0.013700743,1.663059849,1375765.044,1537499674,37.81508838,-122.263264
19639,0.115371704,0.01331063,0.159835815,0.025547488,0.251586914,0.063295975,0.31961554,1375765.104,1537499674,37.81508838,-122.263264
19640,0.234100342,0.05480297,0.733596802,0.538164268,-0.334365845,0.111800518,0.839504471,1375765.164,1537499674,37.81508838,-122.263264
19641,0.120193481,0.014446473,1.423461914,2.026243821,-0.463180542,0.214536214,1.501741159,1375765.223,1537499674,37.81508838,-122.263264
19642,0.281311035,0.079135898,1.020462036,1.041342767,-0.088867188,0.007897377,1.062250461,1375765.283,1537499674,37.81508838,-122.263264
19643,0.147735596,0.021825806,0.619796753,0.384148015,0.084411621,0.007125322,0.642727892,1375765.343,1537499674,37.81508838,-122.263264
19644,0.007446289,5.54E-05,-0.282943726,0.080057152,-0.130981445,0.017156139,0.311879365,1375765.402,1537499674,37.81508838,-122.263264
19645,0.281661987,0.079333475,0.978546143,0.957552554,0.001083374,1.17E-06,1.018276585,1375765.462,1537499674,37.81508838,-122.263264
19646,0.306976318,0.09423446,1.112091064,1.236746535,-0.176513672,0.031157076,1.167106709,1375765.522,1537499674,37.81508838,-122.263264
19647,0.3621521,0.131154144,1.259292603,1.58581786,-0.204406738,0.041782115,1.326180274,1375765.581,1537499675,37.81505227,-122.2632393
19648,0.371414185,0.137948497,1.038238525,1.077939235,0.103027344,0.010614634,1.107475673,1375765.641,1537499675,37.81505227,-122.2632393
19649,0.175994873,0.030974195,0.851669312,0.725340617,-0.207382202,0.043007378,0.894048203,1375765.701,1537499675,37.81505227,-122.2632393
19650,0.060958862,0.003715983,0.153198242,0.023469701,0.141418457,0.01999918,0.217220773,1375765.76,1537499675,37.81505227,-122.2632393
19651,0.198074341,0.039233445,0.655471802,0.429643283,-0.157409668,0.024777804,0.70260553,1375765.82,1537499675,37.81505227,-122.2632393
19652,0.199157715,0.039663795,1.371154785,1.880065444,-0.118682861,0.014085621,1.39061672,1375765.88,1537499675,37.81505227,-122.2632393
19653,0.294021606,0.086448705,0.906723022,0.822146639,0.168136597,0.028269915,0.967918002,1375765.939,1537499675,37.81505227,-122.2632393
19654,0.320587158,0.102776126,1.235534668,1.526545916,-0.071151733,0.005062569,1.278430526,1375765.999,1537499675,37.81505227,-122.2632393
19655,0.291900635,0.085205981,1.239974976,1.537537941,0.267456055,0.071532741,1.301643831,1375766.059,1537499675,37.81505227,-122.2632393
19656,0.234893799,0.055175097,0.841766357,0.7085706,-0.016021729,0.000256696,0.874072304,1375766.118,1537499675,37.81505227,-122.2632393
19657,0.250183105,0.062591586,1.025405884,1.051457227,-0.127365112,0.016221872,1.063141893,1375766.178,1537499675,37.81505227,-122.2632393
19658,0.299957275,0.089974367,1.431976318,2.050556175,-0.327667236,0.107365818,1.499298623,1375766.238,1537499675,37.81505227,-122.2632393
19659,0.318389893,0.101372124,1.329483032,1.767525132,-0.1824646,0.03329333,1.379199256,1375766.297,1537499675,37.81505227,-122.2632393
19660,0.111297607,0.012387157,0.633956909,0.401901362,0.081802368,0.006691627,0.648829829,1375766.357,1537499675,37.81505227,-122.2632393
19661,0.347381592,0.12067397,1.311264038,1.719413377,-0.36656189,0.134367619,1.405153005,1375766.417,1537499675,37.81505227,-122.2632393
19662,0.200790405,0.040316787,0.994338989,0.988710025,-0.235702515,0.055555676,1.041432901,1375766.476,1537499675,37.81505227,-122.2632393
19663,0.404067993,0.163270943,1.31703186,1.73457292,-0.037475586,0.00140442,1.378132172,1375766.536,1537499675,37.81505227,-122.2632393
19664,0.263198853,0.069273636,1.266677856,1.604472791,-0.070236206,0.004933125,1.295638666,1375766.596,1537499676,37.81496437,-122.2631938
19665,0.131332397,0.017248199,0.821411133,0.674716249,0.169250488,0.028645728,0.848887611,1375766.655,1537499676,37.81496437,-122.2631938
19666,0.250869751,0.062935632,0.865188599,0.748551312,-0.375595093,0.141071674,0.975991095,1375766.715,1537499676,37.81496437,-122.2631938
19667,0.407852173,0.166343395,1.564590454,2.447943289,-0.115310669,0.01329655,1.620982182,1375766.775,1537499676,37.81496437,-122.2631938
19668,0.27394104,0.075043693,1.084945679,1.177107126,-0.098403931,0.009683334,1.123313916,1375766.834,1537499676,37.81496437,-122.2631938
19669,0.153793335,0.02365239,0.853378296,0.728254516,-0.033370972,0.001113622,0.867767554,1375766.894,1537499676,37.81496437,-122.2631938
19670,0.379974365,0.144380518,1.195602417,1.42946514,-0.084396362,0.007122746,1.25736566,1375766.953,1537499676,37.81496437,-122.2631938
19671,0.300430298,0.090258364,0.769515991,0.59215486,-0.235519409,0.055469392,0.859000941,1375767.013,1537499676,37.81496437,-122.2631938
19672,0.206771851,0.042754598,0.785446167,0.616925681,0.246673584,0.060847857,0.848839288,1375767.073,1537499676,37.81496437,-122.2631938
19673,0.396972656,0.15758729,1.686813354,2.845339291,0.163925171,0.026871462,1.740631507,1375767.132,1537499676,37.81496437,-122.2631938
19674,0.265426636,0.070451299,1.104980469,1.220981837,0.104904175,0.011004886,1.141244068,1375767.192,1537499676,37.81496437,-122.2631938
19675,0.256637573,0.065862844,1.246673584,1.554195025,-0.37059021,0.137337104,1.325667746,1375767.252,1537499676,37.81496437,-122.2631938
19676,0.045562744,0.002075964,0.775604248,0.60156195,0.295974731,0.087601041,0.831407815,1375767.311,1537499676,37.81496437,-122.2631938
19677,0.198181152,0.039275769,0.817672729,0.668588692,-0.20249939,0.041006003,0.86537302,1375767.371,1537499676,37.81496437,-122.2631938
19678,0.35824585,0.128340089,1.38269043,1.911832825,0.012329102,0.000152007,1.428399426,1375767.431,1537499676,37.81496437,-122.2631938
19679,0.353988647,0.125307962,1.185470581,1.405340498,0.098388672,0.009680331,1.241099831,1375767.49,1537499676,37.81496437,-122.2631938
19680,0.121795654,0.014834181,0.604049683,0.36487602,-0.221954346,0.049263732,0.654961016,1375767.55,1537499677,37.81490945,-122.2631664
19681,0.170532227,0.02908124,0.372024536,0.138402255,-0.197372437,0.038955879,0.454356,1375767.61,1537499677,37.81490945,-122.2631664
19682,0.279724121,0.078245584,1.177062988,1.385477278,0.116516113,0.013576005,1.21544184,1375767.669,1537499677,37.81490945,-122.2631664
19683,-0.088409424,0.007816226,-0.355178833,0.126152003,0.179550171,0.032238264,0.407684306,1375767.729,1537499677,37.81490945,-122.2631664
19684,0.051300049,0.002631695,0.736679077,0.542696062,-0.47593689,0.226515923,0.878546345,1375767.789,1537499677,37.81490945,-122.2631664
19685,0.162689209,0.026467779,0.849075317,0.720928894,-0.022857666,0.000522473,0.864823187,1375767.848,1537499677,37.81490945,-122.2631664
19686,0.227966309,0.051968638,0.787094116,0.619517147,0.182739258,0.033393636,0.839570975,1375767.908,1537499677,37.81490945,-122.2631664
19687,0.308746338,0.095324301,1.059524536,1.122592242,-0.186218262,0.034677241,1.119193363,1375767.968,1537499677,37.81490945,-122.2631664
19688,0.203933716,0.041588961,0.741500854,0.549823516,0.159347534,0.025391637,0.785368776,1375768.027,1537499677,37.81490945,-122.2631664
19689,0.207092285,0.042887215,0.680053711,0.46247305,0.029876709,0.000892618,0.711514499,1375768.087,1537499677,37.81490945,-122.2631664
19690,0.203567505,0.041439729,0.738616943,0.545554988,-0.04196167,0.001760782,0.767304046,1375768.147,1537499677,37.81490945,-122.2631664
19691,0.297607422,0.088570178,0.882873535,0.779465679,0.033325195,0.001110569,0.932280229,1375768.206,1537499677,37.81490945,-122.2631664
19692,0.359024048,0.128898267,1.416595459,2.006742694,-0.041213989,0.001698593,1.461964279,1375768.266,1537499677,37.81490945,-122.2631664
19693,0.258392334,0.066766598,1.026412964,1.053523573,-0.080322266,0.006451666,1.061480964,1375768.325,1537499677,37.81490945,-122.2631664
19694,0.21875,0.047851563,1.067855835,1.140316084,0.041809082,0.001747999,1.090832547,1375768.385,1537499677,37.81490945,-122.2631664
19695,0.10697937,0.011444586,0.112548828,0.012667239,0.078933716,0.006230532,0.174190573,1375768.445,1537499677,37.81490945,-122.2631664
19696,-0.089233398,0.007962599,-0.168563843,0.028413769,0.204833984,0.041956961,0.27988092,1375768.504,1537499678,37.81485206,-122.2631382
19697,0.311141968,0.096809324,1.306900024,1.707987673,-0.118621826,0.014071138,1.348654194,1375768.564,1537499678,37.81485206,-122.2631382
19698,0.255172729,0.065113122,1.165374756,1.358098322,-0.068862915,0.004742101,1.194970102,1375768.624,1537499678,37.81485206,-122.2631382
19699,0.156707764,0.024557323,0.505065918,0.255091582,0.158233643,0.025037886,0.551984412,1375768.683,1537499678,37.81485206,-122.2631382
19700,0.275390625,0.075839996,1.183868408,1.401544407,-0.351028442,0.123220967,1.265150335,1375768.743,1537499678,37.81485206,-122.2631382
19701,0.243530273,0.059306994,0.851821899,0.725600548,-0.038925171,0.001515169,0.886804776,1375768.803,1537499678,37.81485206,-122.2631382
19702,0.337585449,0.113963935,0.822784424,0.676974208,-0.124130249,0.015408319,0.897967963,1375768.862,1537499678,37.81485206,-122.2631382
19703,0.200256348,0.040102605,1.111801147,1.23610179,-0.26612854,0.0708244,1.160615697,1375768.922,1537499678,37.81485206,-122.2631382
19704,0.175109863,0.030663464,1.180099487,1.392634799,0.089797974,0.008063676,1.196395394,1375768.982,1537499678,37.81485206,-122.2631382
19705,0.185317993,0.034342759,0.222885132,0.049677782,0.008789063,7.72E-05,0.289996187,1375769.041,1537499678,37.81485206,-122.2631382
19706,0.214553833,0.046033347,0.970184326,0.941257626,-0.397018433,0.157623636,1.070006827,1375769.101,1537499678,37.81485206,-122.2631382
19707,0.15007019,0.022521062,1.32170105,1.746893666,-0.22052002,0.048629079,1.348348548,1375769.161,1537499678,37.81485206,-122.2631382
19708,0.176864624,0.031281095,0.873397827,0.762823764,-0.106170654,0.011272208,0.897428029,1375769.22,1537499678,37.81485206,-122.2631382
19709,0.153594971,0.023591415,0.305709839,0.093458506,-0.039978027,0.001598243,0.344453427,1375769.28,1537499678,37.81485206,-122.2631382
19710,0.586975098,0.344539766,1.934677124,3.742975574,-0.429718018,0.184657575,2.066923539,1375769.34,1537499678,37.81485206,-122.2631382
19711,0.284973145,0.081209693,0.985107422,0.970436633,-0.06729126,0.004528114,1.027703479,1375769.399,1537499678,37.81485206,-122.2631382
19712,0.249801636,0.062400857,0.849655151,0.721913876,-0.241043091,0.058101772,0.917832504,1375769.459,1537499678,37.81485206,-122.2631382
19713,0.275421143,0.075856806,0.624069214,0.389462384,-0.061950684,0.003837887,0.684950419,1375769.519,1537499679,37.81482031,-122.2631229
19714,-0.012176514,0.000148267,0.250930786,0.062966259,0.164840698,0.027172456,0.300477924,1375769.578,1537499679,37.81482031,-122.2631229
19715,0.226547241,0.051323652,1.369369507,1.875172847,-0.488922119,0.239044838,1.471577839,1375769.638,1537499679,37.81482031,-122.2631229
19716,0.05758667,0.003316225,0.861953735,0.742964241,-0.027679443,0.000766152,0.864318586,1375769.697,1537499679,37.81482031,-122.2631229
19717,0.034347534,0.001179753,0.520782471,0.271214382,0.076522827,0.005855743,0.52749396,1375769.757,1537499679,37.81482031,-122.2631229
19718,0.336761475,0.113408291,1.216003418,1.478664313,-0.445861816,0.198792759,1.338232178,1375769.817,1537499679,37.81482031,-122.2631229
19719,0.112701416,0.012701609,0.75982666,0.577336553,-0.184555054,0.034060568,0.789999196,1375769.876,1537499679,37.81482031,-122.2631229
19720,0.167144775,0.027937376,0.97819519,0.95686583,-0.310974121,0.096704904,1.039955821,1375769.936,1537499679,37.81482031,-122.2631229
19721,0.344741821,0.118846923,1.078964233,1.164163816,-0.026275635,0.000690409,1.133005361,1375769.996,1537499679,37.81482031,-122.2631229
19722,0.401306152,0.161046628,1.1199646,1.254320705,-0.574569702,0.330130342,1.321172841,1375770.055,1537499679,37.81482031,-122.2631229
19723,0.488830566,0.238955322,0.516616821,0.26689294,-0.389221191,0.151493136,0.810765933,1375770.115,1537499679,37.81482031,-122.2631229
19724,0.472763062,0.223504913,0.740036011,0.547653298,0.154647827,0.02391595,0.891669311,1375770.175,1537499679,37.81482031,-122.2631229
19725,0.259765625,0.06747818,0.630859375,0.397983551,-0.250274658,0.062637404,0.726704297,1375770.234,1537499679,37.81482031,-122.2631229
19726,0.445617676,0.198575113,1.310684204,1.717893083,-0.416488647,0.173462793,1.445659361,1375770.294,1537499679,37.81482031,-122.2631229
19727,0.331512451,0.109900505,1.285842896,1.653391953,-0.120681763,0.014564088,1.333362871,1375770.354,1537499679,37.81482031,-122.2631229
19728,0.013198853,0.00017421,0.369796753,0.136749639,-0.111358643,0.012400747,0.386425408,1375770.413,1537499679,37.81482031,-122.2631229
19729,0.066116333,0.004371369,0.964767456,0.930776244,-0.384597778,0.147915451,1.040703159,1375770.473,1537499679,37.81482031,-122.2631229
19730,-0.024475098,0.00059903,0.757247925,0.57342442,0.004226685,1.79E-05,0.757655143,1375770.533,1537499680,37.81478815,-122.2631091
19731,-0.020828247,0.000433816,0.64730835,0.4190081,-0.08682251,0.007538148,0.653437116,1375770.592,1537499680,37.81478815,-122.2631091
19732,0.068206787,0.004652166,1.035995483,1.073286641,-0.03314209,0.001098398,1.038767156,1375770.652,1537499680,37.81478815,-122.2631091
19733,0.152587891,0.023283064,1.280029297,1.638475001,-0.16519165,0.027288281,1.299633159,1375770.711,1537499680,37.81478815,-122.2631091
19734,0.555267334,0.308321812,1.623184204,2.63472696,-0.450317383,0.202785745,1.773650055,1375770.771,1537499680,37.81478815,-122.2631091
19735,0.40562439,0.164531146,0.936019897,0.876133248,-0.37802124,0.142900058,1.087917484,1375770.831,1537499680,37.81478815,-122.2631091
19736,0.413314819,0.17082914,1.333175659,1.777357338,-0.133132935,0.017724378,1.402109431,1375770.89,1537499680,37.81478815,-122.2631091
19737,0.280731201,0.078810007,1.089416504,1.186828319,-0.488082886,0.238224904,1.226321014,1375770.95,1537499680,37.81478815,-122.2631091
19738,0.454025269,0.206138945,0.99130249,0.982680627,-0.028152466,0.000792561,1.090693418,1375771.01,1537499680,37.81478815,-122.2631091
19739,0.524353027,0.274946097,1.496154785,2.238479141,-0.529037476,0.279880651,1.671318608,1375771.069,1537499680,37.81478815,-122.2631091
19740,0.189529419,0.035921401,1.197891235,1.434943411,-0.262054443,0.068672531,1.240780941,1375771.129,1537499680,37.81478815,-122.2631091
19741,0.115081787,0.013243818,0.951828003,0.905976547,-0.348617554,0.121534199,1.020173791,1375771.189,1537499680,37.81478815,-122.2631091
19742,0.054122925,0.002929291,0.858001709,0.736166933,-0.339813232,0.115473033,0.924429152,1375771.248,1537499680,37.81478815,-122.2631091
19743,0.304428101,0.092676469,1.480072021,2.190613187,-0.013748169,0.000189012,1.51111835,1375771.308,1537499680,37.81478815,-122.2631091
19744,0.099304199,0.009861324,1.237533569,1.531489334,-0.210876465,0.044468883,1.259293271,1375771.368,1537499680,37.81478815,-122.2631091
19745,-0.005371094,2.88E-05,0.288497925,0.083231053,-0.008346558,6.97E-05,0.28866861,1375771.427,1537499680,37.81478815,-122.2631091
19746,0.538284302,0.28974999,0.661178589,0.437157127,-0.524902344,0.275522471,1.001214057,1375771.487,1537499680,37.81478815,-122.2631091
19747,0.441101074,0.194570157,1.021713257,1.04389798,-0.016647339,0.000277134,1.11298934,1375771.547,1537499681,37.81476832,-122.2631005
19748,0.21043396,0.044282452,1.187591553,1.410373697,-0.383621216,0.147165237,1.265630825,1375771.606,1537499681,37.81476832,-122.2631005
19749,0.506881714,0.256929072,0.86555481,0.749185129,-0.303634644,0.092193997,1.048002003,1375771.666,1537499681,37.81476832,-122.2631005
19750,0.347106934,0.120483224,0.642456055,0.412749783,-0.065261841,0.004259108,0.733138537,1375771.726,1537499681,37.81476832,-122.2631005
19751,0.114151001,0.013030451,0.731048584,0.534432032,-0.30380249,0.092295953,0.799849008,1375771.785,1537499681,37.81476832,-122.2631005
19752,-0.058166504,0.003383342,0.695159912,0.483247303,-0.245681763,0.060359529,0.739587841,1375771.845,1537499681,37.81476832,-122.2631005
19753,0.01373291,0.000188593,0.728851318,0.531224244,-0.12991333,0.016877473,0.740466279,1375771.905,1537499681,37.81476832,-122.2631005
19754,-0.164093018,0.026926519,0.369522095,0.136546579,-0.075637817,0.005721079,0.411332197,1375771.964,1537499681,37.81476832,-122.2631005
19755,0.084640503,0.007164015,1.505783081,2.267382687,-0.315612793,0.099611435,1.54083034,1375772.024,1537499681,37.81476832,-122.2631005
19756,0.334259033,0.111729101,1.256225586,1.578102723,-0.43347168,0.187897697,1.370302712,1375772.083,1537499681,37.81476832,-122.2631005
19757,0.551971436,0.304672466,0.712356567,0.507451879,-0.229660034,0.052743731,0.929982836,1375772.143,1537499681,37.81476832,-122.2631005
19758,0.298110962,0.088870146,0.544937134,0.29695648,0.03666687,0.001344459,0.622230733,1375772.203,1537499681,37.81476832,-122.2631005
19759,0.511077881,0.2612006,1.722839355,2.968175443,-0.669311523,0.447977915,1.917642813,1375772.262,1537499681,37.81476832,-122.2631005
19760,0.355621338,0.126466536,0.933578491,0.871568799,0.114212036,0.013044389,1.005524601,1375772.322,1537499681,37.81476832,-122.2631005
19761,-0.001968384,3.87E-06,0.008392334,7.04E-05,0.182327271,0.033243234,0.182530928,1375772.382,1537499681,37.81476832,-122.2631005
19762,-0.09375,0.008789063,1.152816772,1.32898651,-0.818527222,0.669986813,1.416955322,1375772.441,1537499681,37.81476832,-122.2631005
19763,0.049240112,0.002424589,1.481719971,2.195494072,-0.126159668,0.015916262,1.48789614,1375772.501,1537499681,37.81476832,-122.2631005
19764,0.275726318,0.076025002,0.914108276,0.83559394,-0.000854492,7.30E-07,0.954787763,1375772.561,1537499682,37.81472881,-122.2630835
19765,0.117233276,0.013743641,1.540603638,2.373459569,-0.386077881,0.14905613,1.592563763,1375772.62,1537499682,37.81472881,-122.2630835
19766,0.141448975,0.020007813,0.709274292,0.503070021,-0.43838501,0.192181417,0.845730011,1375772.68,1537499682,37.81472881,-122.2630835
19767,0.44152832,0.194947257,0.176422119,0.031124764,-0.293289185,0.086018546,0.558650667,1375772.74,1537499682,37.81472881,-122.2630835
19768,0.783493042,0.613861347,1.923965454,3.701643068,-0.087722778,0.007695286,2.079230555,1375772.799,1537499682,37.81472881,-122.2630835
19769,0.359985352,0.129589454,0.841934204,0.708853204,0.09286499,0.008623906,0.920362192,1375772.859,1537499682,37.81472881,-122.2630835
19770,0.243026733,0.059061993,0.118225098,0.013977174,0.119110107,0.014187218,0.295341132,1375772.919,1537499682,37.81472881,-122.2630835
19771,0.154312134,0.023812235,1.373306274,1.885970122,-0.458786011,0.210484604,1.45611365,1375772.978,1537499682,37.81472881,-122.2630835
19772,-0.036071777,0.001301173,1.204650879,1.45118374,-0.554275513,0.307221344,1.326539203,1375773.038,1537499682,37.81472881,-122.2630835
19773,0.179626465,0.032265667,0.952651978,0.907545791,0.006027222,3.63E-05,0.96945747,1375773.098,1537499682,37.81472881,-122.2630835
19774,-0.269104004,0.072416965,0.410568237,0.168566277,0.070159912,0.004922413,0.495888753,1375773.157,1537499682,37.81472881,-122.2630835
19775,0.098144531,0.009632349,1.402313232,1.966482401,-0.37336731,0.139403148,1.454482003,1375773.217,1537499682,37.81472881,-122.2630835
19776,0.657211304,0.431926698,1.008270264,1.016608925,-0.478775024,0.229225524,1.295284195,1375773.277,1537499682,37.81472881,-122.2630835
19777,0.696029663,0.484457292,1.062332153,1.128549603,-0.107650757,0.011588685,1.274596242,1375773.336,1537499682,37.81472881,-122.2630835
19778,0.052627563,0.00276966,0.108963013,0.011872938,-0.100112915,0.010022596,0.157051566,1375773.396,1537499682,37.81472881,-122.2630835
19779,0.570205688,0.325134527,0.864578247,0.747495545,-0.055160522,0.003042683,1.037146448,1375773.456,1537499682,37.81472881,-122.2630835
19780,0.291748047,0.085116923,1.11340332,1.239666953,-0.054214478,0.00293921,1.152268669,1375773.515,1537499682,37.81472881,-122.2630835
19781,-0.093902588,0.008817696,0.688690186,0.474294172,-0.377731323,0.142680952,0.79107068,1375773.575,1537499683,37.81464285,-122.2630384
19782,0.150634766,0.022690833,1.612442017,2.599969258,-0.859039307,0.737948531,1.833196286,1375773.634,1537499683,37.81464285,-122.2630384
19783,0.074005127,0.005476759,1.609130859,2.589302121,0.18862915,0.035580956,1.621838413,1375773.694,1537499683,37.81464285,-122.2630384
19784,0.113693237,0.012926152,1.365447998,1.864448235,-0.403289795,0.162642659,1.428291653,1375773.754,1537499683,37.81464285,-122.2630384
19785,0.793014526,0.628872038,1.232833862,1.519879331,-0.759567261,0.576942424,1.650967533,1375773.813,1537499683,37.81464285,-122.2630384
19786,0.348617554,0.121534199,0.11769104,0.013851181,-0.029647827,0.000878994,0.369140046,1375773.873,1537499683,37.81464285,-122.2630384
19787,0.147827148,0.021852866,0.975082397,0.950785681,-0.051605225,0.002663099,0.987573615,1375773.933,1537499683,37.81464285,-122.2630384
19788,0.206085205,0.042471112,0.172973633,0.029919878,0.199966431,0.039986574,0.335227629,1375773.992,1537499683,37.81464285,-122.2630384
19789,-0.060531616,0.003664077,-0.023925781,0.000572443,-0.360290527,0.129809264,0.366122634,1375774.052,1537499683,37.81464285,-122.2630384
19790,0.01272583,0.000161947,1.156646729,1.337831656,-0.584487915,0.341626123,1.296001437,1375774.112,1537499683,37.81464285,-122.2630384
19791,0.067672729,0.004579598,1.355209351,1.836592385,0.11239624,0.012632915,1.361545041,1375774.171,1537499683,37.81464285,-122.2630384
19792,0.289352417,0.083724821,1.415466309,2.003544872,0.043426514,0.001885862,1.445391143,1375774.231,1537499683,37.81464285,-122.2630384
19793,0.871658325,0.759788236,1.654556274,2.737556464,-0.461090088,0.212604069,1.926122729,1375774.291,1537499683,37.81464285,-122.2630384
19794,0.517303467,0.267602877,0.996429443,0.992871635,-0.066177368,0.004379444,1.124657262,1375774.35,1537499683,37.81464285,-122.2630384
19795,0.262329102,0.068816558,1.209854126,1.463747006,-0.309646606,0.095881021,1.27610524,1375774.41,1537499683,37.81464285,-122.2630384
19796,-0.003204346,1.03E-05,0.479263306,0.229693316,-0.061660767,0.00380205,0.483224207,1375774.47,1537499683,37.81464285,-122.2630384
19797,0.279190063,0.077947091,0.84803772,0.719167975,-0.289001465,0.083521847,0.938422566,1375774.529,1537499683,37.81464285,-122.2630384
19798,0.231124878,0.053418709,1.592208862,2.53512906,-0.270370483,0.073100198,1.631455782,1375774.589,1537499684,37.814574,-122.2629989
19799,0.078857422,0.006218493,1.057067871,1.117392484,0.057266235,0.003279422,1.06155094,1375774.649,1537499684,37.814574,-122.2629989
19800,0.638076782,0.40714198,1.634857178,2.672757992,-0.611801147,0.374300643,1.858547986,1375774.708,1537499684,37.814574,-122.2629989
19801,0.186599731,0.03481946,1.176483154,1.384112612,0.327651978,0.107355819,1.235430245,1375774.768,1537499684,37.814574,-122.2629989
19802,-0.03225708,0.001040519,1.331130981,1.771909689,-0.101791382,0.010361485,1.335406939,1375774.828,1537499684,37.814574,-122.2629989
19803,0.118408203,0.014020503,1.001876831,1.003757184,-0.32421875,0.105117798,1.059667629,1375774.887,1537499684,37.814574,-122.2629989
19804,0.641601563,0.411652566,1.049240112,1.100904813,-0.622650146,0.387693204,1.378495768,1375774.947,1537499684,37.814574,-122.2629989
19805,0.065444946,0.004283041,-0.018890381,0.000356846,-0.065658569,0.004311048,0.094609382,1375775.007,1537499684,37.814574,-122.2629989
19806,-0.005645752,3.19E-05,0.48777771,0.237927094,-0.078048706,0.006091601,0.494014746,1375775.066,1537499684,37.814574,-122.2629989
19807,0.193527222,0.037452786,0.521682739,0.27215288,-0.334594727,0.111953631,0.649275979,1375775.126,1537499684,37.814574,-122.2629989
19808,0.329071045,0.108287753,0.547180176,0.299406145,-0.12953186,0.016778503,0.651515464,1375775.185,1537499684,37.814574,-122.2629989
19809,-0.095794678,0.00917662,-0.290542603,0.084415004,-0.287353516,0.082572043,0.419718558,1375775.245,1537499684,37.814574,-122.2629989
19810,0.750579834,0.563370087,2.788772583,7.77725252,-0.804824829,0.647743005,2.998060308,1375775.305,1537499684,37.814574,-122.2629989
19811,0.068145752,0.004643844,0.210845947,0.044456013,-0.069366455,0.004811705,0.232188634,1375775.364,1537499684,37.814574,-122.2629989
19812,-0.030487061,0.000929461,0.518051147,0.268376991,-0.084655762,0.007166598,0.525807046,1375775.424,1537499684,37.814574,-122.2629989
19813,0.062866211,0.00395216,1.368103027,1.871705892,-0.173934937,0.030253362,1.380547506,1375775.484,1537499684,37.814574,-122.2629989
19814,0.452102661,0.204396816,1.169113159,1.366825579,-0.030563354,0.000934119,1.253856656,1375775.543,1537499685,37.81448151,-122.2629371
19815,0.475708008,0.226298109,1.169998169,1.368895715,-0.434906006,0.189143234,1.335790799,1375775.603,1537499685,37.81448151,-122.2629371
19816,0.478942871,0.229386274,1.328582764,1.765132161,-0.429443359,0.184421599,1.476123312,1375775.663,1537499685,37.81448151,-122.2629371
19817,0.288314819,0.083125435,1.0340271,1.069212044,0.522079468,0.272566971,1.193693616,1375775.722,1537499685,37.81448151,-122.2629371
19818,0.130004883,0.01690127,-0.192764282,0.037158068,0.143630981,0.020629859,0.273293243,1375775.782,1537499685,37.81448151,-122.2629371
19819,1.00958252,1.019256865,2.410385132,5.809956485,-0.737014771,0.543190773,2.715217141,1375775.842,1537499685,37.81448151,-122.2629371
19820,-0.037445068,0.001402133,1.145828247,1.312922372,-0.227401733,0.051711548,1.16877545,1375775.901,1537499685,37.81448151,-122.2629371
19821,0.118896484,0.014136374,1.448196411,2.097272845,-0.319946289,0.102365628,1.487875951,1375775.961,1537499685,37.81448151,-122.2629371
19822,0.039962769,0.001597023,0.922470093,0.850951072,-0.301498413,0.090901293,0.971313229,1375776.021,1537499685,37.81448151,-122.2629371
19823,-0.350723267,0.12300681,0.153030396,0.023418302,-0.166824341,0.027830361,0.417439185,1375776.08,1537499685,37.81448151,-122.2629371
19824,-0.272964478,0.074509606,-0.166061401,0.027576389,-0.055541992,0.003084913,0.324300645,1375776.14,1537499685,37.81448151,-122.2629371
19825,0.561172485,0.314914558,1.342224121,1.801565591,-0.611022949,0.373349044,1.577919261,1375776.2,1537499685,37.81448151,-122.2629371
19826,0.531585693,0.282583349,0.951568604,0.905482808,-0.066665649,0.004444309,1.092021275,1375776.259,1537499685,37.81448151,-122.2629371
19827,0.459442139,0.211087079,1.718353271,2.952737964,-0.314941406,0.099188089,1.806381226,1375776.319,1537499685,37.81448151,-122.2629371
19828,0.336669922,0.113346636,0.968399048,0.937796716,0.255950928,0.065510878,1.056718614,1375776.378,1537499685,37.81448151,-122.2629371
19829,0.534896851,0.286114641,0.993469238,0.986981127,-0.350326538,0.122728683,1.181450148,1375776.438,1537499685,37.81448151,-122.2629371
19830,0.097412109,0.009489119,1.464660645,2.145230805,-0.422195435,0.178248985,1.527405941,1375776.498,1537499685,37.81448151,-122.2629371
19831,-0.063430786,0.004023465,1.425094604,2.03089463,-0.422042847,0.178120165,1.487628401,1375776.557,1537499686,37.81445967,-122.262922
19832,0.40965271,0.167815343,1.984924316,3.93992454,-0.341522217,0.116637425,2.055329002,1375776.617,1537499686,37.81445967,-122.262922
19833,0.212936401,0.045341911,1.46987915,2.160544716,0.419372559,0.175873343,1.543295166,1375776.677,1537499686,37.81445967,-122.262922
19834,0.21105957,0.044546142,0.644104004,0.414869968,-0.441238403,0.194691328,0.808769088,1375776.736,1537499686,37.81445967,-122.262922
19835,0.454788208,0.206832314,0.306304932,0.093822711,-0.513336182,0.263514036,0.751111883,1375776.796,1537499686,37.81445967,-122.262922
19836,0.527160645,0.277898346,0.888305664,0.789086953,0.027267456,0.000743514,1.03330964,1375776.856,1537499686,37.81445967,-122.262922
19837,0.771606445,0.595376506,1.827407837,3.339419403,-0.159133911,0.025323602,1.990004902,1375776.915,1537499686,37.81445967,-122.262922
19838,0.403274536,0.162630351,1.018630981,1.037609075,0.141235352,0.019947425,1.104620682,1375776.975,1537499686,37.81445967,-122.262922
19839,0.379196167,0.143789733,0.962860107,0.927099586,-0.195541382,0.038236432,1.053150393,1375777.035,1537499686,37.81445967,-122.262922
19840,0.428741455,0.183819235,1.778366089,3.162585947,-0.766616821,0.58770135,1.983458225,1375777.094,1537499686,37.81445967,-122.262922
19841,0.204605103,0.041863248,1.640716553,2.691950807,0.043136597,0.001860766,1.653987552,1375777.154,1537499686,37.81445967,-122.262922
19842,-0.071746826,0.005147607,0.785125732,0.616422415,0.006057739,3.67E-05,0.788420394,1375777.214,1537499686,37.81445967,-122.262922
19843,-0.252563477,0.06378831,0.536895752,0.288257049,0.024673462,0.00060878,0.593846898,1375777.273,1537499686,37.81445967,-122.262922
19844,0.174285889,0.030375571,0.939086914,0.881884232,-0.320770264,0.102893562,1.007548195,1375777.333,1537499686,37.81445967,-122.262922
19845,0.393844604,0.155113572,0.246780396,0.060900564,-0.718490601,0.516228744,0.855711914,1375777.393,1537499686,37.81445967,-122.262922
19846,0.089553833,0.008019889,0.093383789,0.008720532,-0.068847656,0.00474,0.146562003,1375777.452,1537499686,37.81445967,-122.262922
19847,0.640731812,0.410537255,1.514389038,2.293374158,-0.263946533,0.069667772,1.665406613,1375777.512,1537499686,37.81445967,-122.262922
19848,0.363113403,0.131851343,1.128082275,1.272569619,0.24369812,0.059388774,1.20988005,1375777.572,1537499687,37.81439257,-122.2628733
19849,0.173858643,0.030226828,0.964096069,0.92948123,-0.193466187,0.037429166,0.998567586,1375777.631,1537499687,37.81439257,-122.2628733
19850,-0.064712524,0.004187711,0.748550415,0.560327724,-0.507492065,0.257548196,0.906677247,1375777.691,1537499687,37.81439257,-122.2628733
19851,0.312850952,0.097875718,1.702682495,2.899127679,-0.233505249,0.054524701,1.746862358,1375777.75,1537499687,37.81439257,-122.2628733
19852,0.05506897,0.003032591,1.285400391,1.652254165,0.513259888,0.263435713,1.38517958,1375777.81,1537499687,37.81439257,-122.2628733
19853,0.176055908,0.030995683,2.081466675,4.332503519,-0.204742432,0.041919463,2.098908923,1375777.87,1537499687,37.81439257,-122.2628733
19854,0.584793091,0.341982959,0.614349365,0.377425142,-0.810836792,0.657456303,1.173398656,1375777.929,1537499687,37.81439257,-122.2628733
19855,0.739044189,0.546186313,0.771057129,0.594529096,-0.328689575,0.108036837,1.117475837,1375777.989,1537499687,37.81439257,-122.2628733
19856,0.546218872,0.298355056,1.835510254,3.369097893,-0.017181396,0.0002952,1.915136588,1375778.049,1537499687,37.81439257,-122.2628733
19857,0.362747192,0.131585525,0.665985107,0.443536163,0.130233765,0.016960834,0.769468987,1375778.108,1537499687,37.81439257,-122.2628733
19858,0.229660034,0.052743731,1.37928772,1.902434615,-0.324630737,0.105385115,1.435466287,1375778.168,1537499687,37.81439257,-122.2628733
19859,0.119934082,0.014384184,0.53678894,0.288142366,-0.783065796,0.613192041,0.956931863,1375778.228,1537499687,37.81439257,-122.2628733
19860,-0.013412476,0.000179895,0.588684082,0.346548948,-0.297851563,0.088715554,0.659882108,1375778.287,1537499687,37.81439257,-122.2628733
19861,-0.250839233,0.062920321,-0.149307251,0.022292655,0.226715088,0.051399731,0.369611563,1375778.347,1537499687,37.81439257,-122.2628733
19862,-0.074783325,0.005592546,1.310073853,1.7162935,-0.078979492,0.00623776,1.314581228,1375778.407,1537499687,37.81439257,-122.2628733
19863,-0.003540039,1.25E-05,-0.036651611,0.001343341,-0.255279541,0.065167644,0.257921532,1375778.466,1537499687,37.81439257,-122.2628733
19864,0.808181763,0.653157762,0.759490967,0.576826529,-0.495864868,0.245881967,1.214852361,1375778.526,1537499688,37.81433227,-122.2628207
19865,0.623336792,0.388548756,1.021743774,1.04396034,-0.059448242,0.003534093,1.198350195,1375778.586,1537499688,37.81433227,-122.2628207
19866,0.384384155,0.147751179,0.333755493,0.111392729,0.030044556,0.000902675,0.509947628,1375778.645,1537499688,37.81433227,-122.2628207
19867,0.077636719,0.00602746,0.293792725,0.086314165,-0.321212769,0.103177643,0.442175608,1375778.705,1537499688,37.81433227,-122.2628207
19868,-0.117614746,0.013833228,1.046524048,1.095212583,-0.767227173,0.588637535,1.302951782,1375778.765,1537499688,37.81433227,-122.2628207
19869,-0.195632935,0.038272245,0.106201172,0.011278689,0.255584717,0.065323548,0.338931382,1375778.824,1537499688,37.81433227,-122.2628207
19870,-0.021408081,0.000458306,1.117584229,1.248994509,-0.025024414,0.000626221,1.118069334,1375778.884,1537499688,37.81433227,-122.2628207
19871,0.117782593,0.013872739,1.195419312,1.429027332,-0.368652344,0.135904551,1.256504923,1375778.944,1537499688,37.81433227,-122.2628207
19872,0.650268555,0.422849194,0.956573486,0.915032834,-0.582931519,0.339809156,1.295257188,1375779.003,1537499688,37.81433227,-122.2628207
19873,0.551269531,0.303898096,0.820053101,0.672487088,-0.068130493,0.004641764,0.990468045,1375779.063,1537499688,37.81433227,-122.2628207
19874,0.254104614,0.064569155,0.580993652,0.337553624,-0.407272339,0.165870758,0.753653459,1375779.123,1537499688,37.81433227,-122.2628207
19875,0.310150146,0.096193113,0.26171875,0.068496704,-0.177124023,0.03137292,0.442789721,1375779.182,1537499688,37.81433227,-122.2628207
19876,0.212051392,0.044965793,0.911499023,0.830830469,0.090332031,0.008159876,0.940189416,1375779.242,1537499688,37.81433227,-122.2628207
19877,-0.088272095,0.007791963,0.394165039,0.155366078,-0.650543213,0.423206472,0.765744417,1375779.302,1537499688,37.81433227,-122.2628207
19878,-0.075363159,0.005679606,1.351867676,1.827546213,-0.258377075,0.066758713,1.378399264,1375779.361,1537499688,37.81433227,-122.2628207
19879,0.104110718,0.010839042,1.497634888,2.242910258,-0.082336426,0.006779287,1.503505433,1375779.421,1537499688,37.81433227,-122.2628207
19880,0.216400146,0.046829023,1.625915527,2.643601301,-0.57585144,0.331604881,1.738400186,1375779.481,1537499689,37.81423976,-122.2627405
19881,0.63444519,0.402520699,0.687973022,0.473306879,-0.307678223,0.094665889,0.985136268,1375779.54,1537499689,37.81423976,-122.2627405
19882,0.230926514,0.053327055,-0.076126099,0.005795183,-0.338424683,0.114531266,0.416717535,1375779.6,1537499689,37.81423976,-122.2627405
19883,0.310195923,0.096221511,0.890167236,0.792397708,0.117797852,0.013876334,0.949997659,1375779.66,1537499689,37.81423976,-122.2627405
19884,0.169525146,0.028738775,-0.177963257,0.031670921,0.44430542,0.197407306,0.507756834,1375779.719,1537499689,37.81423976,-122.2627405
19885,0.163467407,0.026721593,0.93661499,0.877247639,-0.214920044,0.046190625,0.974761436,1375779.779,1537499689,37.81423976,-122.2627405
19886,0.114868164,0.013194695,1.29699707,1.6822014,-0.775985718,0.602153835,1.515767109,1375779.838,1537499689,37.81423976,-122.2627405
19887,0.233352661,0.054453464,1.957427979,3.831524293,0.020568848,0.000423078,1.971395657,1375779.898,1537499689,37.81423976,-122.2627405
19888,0.010131836,0.000102654,0.472290039,0.223057881,0.331237793,0.109718476,0.57695668,1375779.958,1537499689,37.81423976,-122.2627405
19889,0.467651367,0.218697801,1.00479126,1.009605476,-0.285720825,0.08163639,1.144525957,1375780.017,1537499689,37.81423976,-122.2627405
19890,0.553939819,0.306849323,0.472717285,0.223461632,-0.296066284,0.087655245,0.786108262,1375780.077,1537499689,37.81423976,-122.2627405
19891,0.102005005,0.010405021,0.1902771,0.036205375,0.091278076,0.008331687,0.234397276,1375780.137,1537499689,37.81423976,-122.2627405
19892,0.270843506,0.073356205,0.96824646,0.937501207,-0.279602051,0.078177307,1.043568263,1375780.196,1537499689,37.81423976,-122.2627405
19893,0.220214844,0.048494578,0.067214966,0.004517852,-0.021484375,0.000461578,0.231244476,1375780.256,1537499689,37.81423976,-122.2627405
19894,-0.020843506,0.000434452,0.790161133,0.624354616,0.011901855,0.000141654,0.790525599,1375780.316,1537499689,37.81423976,-122.2627405
19895,0.307785034,0.094731627,1.586517334,2.517037251,-0.182662964,0.033365758,1.626386989,1375780.375,1537499689,37.81423976,-122.2627405
19896,0.275619507,0.075966113,1.190063477,1.416251079,-0.37638855,0.141668341,1.27823532,1375780.435,1537499689,37.81423976,-122.2627405
19897,0.368881226,0.136073359,1.578491211,2.491634503,0.105392456,0.01110757,1.624443114,1375780.495,1537499689,37.81423976,-122.2627405
19898,-0.211257935,0.044629915,0.105438232,0.011117221,0.158859253,0.025236262,0.284575821,1375780.554,1537499690,37.81416993,-122.2626813
19899,0.245834351,0.060434528,1.954940796,3.821793516,-0.790100098,0.624258165,2.122848607,1375780.614,1537499690,37.81416993,-122.2626813
19900,0.495101929,0.24512592,1.071060181,1.147169911,-0.498077393,0.248081089,1.280772002,1375780.674,1537499690,37.81416993,-122.2626813
19901,0.479690552,0.230103026,0.851043701,0.724275381,0.043731689,0.001912461,0.977901256,1375780.733,1537499690,37.81416993,-122.2626813
19902,0.330108643,0.108971716,0.916519165,0.84000738,-0.182327271,0.033243234,0.991071304,1375780.793,1537499690,37.81416993,-122.2626813
19903,0.483383179,0.233659298,1.350753784,1.824535785,0.205612183,0.04227637,1.449300332,1375780.853,1537499690,37.81416993,-122.2626813
19904,0.189422607,0.035880924,0.508300781,0.258369684,-0.403884888,0.163123003,0.676294027,1375780.912,1537499690,37.81416993,-122.2626813
19905,-0.005050659,2.55E-05,0.942993164,0.889236107,-0.054000854,0.002916092,0.944551591,1375780.972,1537499690,37.81416993,-122.2626813
19906,-0.00352478,1.24E-05,1.206542969,1.455745936,-0.12046814,0.014512573,1.212547291,1375781.032,1537499690,37.81416993,-122.2626813
19907,0.329269409,0.108418344,1.164703369,1.356533938,-0.0259552,0.000673672,1.210630395,1375781.091,1537499690,37.81416993,-122.2626813
19908,0.142166138,0.020211211,0.829772949,0.688523147,-0.049789429,0.002478987,0.843334658,1375781.151,1537499690,37.81416993,-122.2626813
19909,0.155685425,0.024237952,1.145202637,1.31148908,-0.235443115,0.05543346,1.179474668,1375781.211,1537499690,37.81416993,-122.2626813
19910,0.177352905,0.031454053,0.65965271,0.435141698,-0.080307007,0.006449215,0.687782645,1375781.27,1537499690,37.81416993,-122.2626813
19911,0.351348877,0.123446033,1.001052856,1.002106821,-0.140106201,0.019629748,1.070132049,1375781.33,1537499690,37.81416993,-122.2626813
19912,0.219558716,0.04820603,0.584259033,0.341358618,0.148773193,0.022133463,0.641637055,1375781.39,1537499690,37.81416993,-122.2626813
19913,0.134063721,0.017973081,-0.324752808,0.105464386,-0.12298584,0.015125517,0.372240493,1375781.449,1537499690,37.81416993,-122.2626813
19914,0.359741211,0.129413739,1.423950195,2.027634158,-0.412948608,0.170526553,1.52563903,1375781.509,1537499690,37.81416993,-122.2626813
19915,0.17829895,0.031790516,0.693832397,0.481403395,0.096343994,0.009282165,0.722825066,1375781.569,1537499691,37.8141011,-122.2626228
19916,0.304458618,0.09269505,1.225845337,1.50269679,-0.307571411,0.094600173,1.299996928,1375781.628,1537499691,37.8141011,-122.2626228
19917,0.334701538,0.11202512,1.137664795,1.294281186,-0.006408691,4.11E-05,1.185895179,1375781.688,1537499691,37.8141011,-122.2626228
19918,0.26612854,0.0708244,1.039306641,1.080158294,0.176147461,0.031027928,1.087203119,1375781.747,1537499691,37.8141011,-122.2626228
19919,4.58E-05,2.10E-09,1.229736328,1.512251436,-0.052993774,0.00280834,1.230877646,1375781.807,1537499691,37.8141011,-122.2626228
19920,0.213378906,0.045530558,1.402297974,1.966439608,-0.199645996,0.039858524,1.43242057,1375781.867,1537499691,37.8141011,-122.2626228
19921,0.792098999,0.627420824,1.985443115,3.941984363,-0.777420044,0.604381925,2.274596033,1375781.926,1537499691,37.8141011,-122.2626228
19922,0.506393433,0.256434309,0.711349487,0.506018093,-0.186050415,0.034614757,0.892786177,1375781.986,1537499691,37.8141011,-122.2626228
19923,0.327163696,0.107036084,0.942428589,0.888171645,0.070571899,0.004980393,1.000094057,1375782.046,1537499691,37.8141011,-122.2626228
19924,0.671722412,0.451210999,1.947647095,3.793329207,-0.404891968,0.163937506,2.099637519,1375782.105,1537499691,37.8141011,-122.2626228
19925,0.074478149,0.005546995,0.779174805,0.607113377,-0.022232056,0.000494264,0.783041912,1375782.165,1537499691,37.8141011,-122.2626228
19926,0.176727295,0.031232537,1.536605835,2.361157492,-0.765274048,0.585644369,1.725698235,1375782.225,1537499691,37.8141011,-122.2626228
19927,0.276153564,0.076260791,1.93611145,3.748527547,-0.19203186,0.036876235,1.965111847,1375782.284,1537499691,37.8141011,-122.2626228
19928,0.277603149,0.077063508,2.255508423,5.087318246,-0.133621216,0.017854629,2.276452588,1375782.344,1537499691,37.8141011,-122.2626228
19929,-0.012710571,0.000161559,-0.041763306,0.001744174,0.199996948,0.039998779,0.204705915,1375782.404,1537499691,37.8141011,-122.2626228
19930,0.270996094,0.073438883,1.256332397,1.578371092,-0.261581421,0.06842484,1.311577224,1375782.463,1537499691,37.8141011,-122.2626228
19931,0.536804199,0.288158748,2.190994263,4.80045586,-0.65826416,0.433311704,2.349877936,1375782.523,1537499692,37.81402366,-122.2625566
19932,0.609542847,0.371542482,1.543807983,2.383343088,-0.273757935,0.074943407,1.682209552,1375782.583,1537499692,37.81402366,-122.2625566
19933,0.329086304,0.108297795,0.9012146,0.812187755,0.222122192,0.049338268,0.984796334,1375782.642,1537499692,37.81402366,-122.2625566
19934,0.328598022,0.10797666,0.927963257,0.861115806,-0.209609985,0.043936346,1.006493324,1375782.702,1537499692,37.81402366,-122.2625566
19935,-0.015487671,0.000239868,-0.224899292,0.050579692,0.203918457,0.041582737,0.303977461,1375782.762,1537499692,37.81402366,-122.2625566
19936,-0.008407593,7.07E-05,0.577301025,0.333276473,0.288665771,0.083327927,0.645503748,1375782.821,1537499692,37.81402366,-122.2625566
19937,-0.04258728,0.001813676,0.585083008,0.342322126,-0.480072021,0.230469145,0.75802701,1375782.881,1537499692,37.81402366,-122.2625566
19938,-0.599838257,0.359805935,-0.336395264,0.113161774,-0.682998657,0.466487165,0.969254803,1375782.941,1537499692,37.81402366,-122.2625566
19939,-0.015563965,0.000242237,0.660385132,0.436108523,0.056259155,0.003165093,0.662959917,1375783,1537499692,37.81402366,-122.2625566
19940,0.121536255,0.014771061,0.466308594,0.217443705,0.266433716,0.070986925,0.550637532,1375783.06,1537499692,37.81402366,-122.2625566
19941,-0.069702148,0.004858389,-0.045074463,0.002031707,0.085220337,0.007262506,0.118964711,1375783.119,1537499692,37.81402366,-122.2625566
19942,0.250595093,0.062797901,0.604553223,0.365484599,-0.520767212,0.271198489,0.836349801,1375783.179,1537499692,37.81402366,-122.2625566
19943,0.981887817,0.964103685,2.727386475,7.438636984,-0.736099243,0.541842096,2.990749532,1375783.239,1537499692,37.81402366,-122.2625566
19944,0.485931396,0.236129322,1.710739136,2.926628391,0.011077881,0.000122719,1.778448884,1375783.298,1537499692,37.81402366,-122.2625566
19945,0.317504883,0.100809351,0.918106079,0.842918772,-0.019744873,0.00038986,0.971657338,1375783.358,1537499692,37.81402366,-122.2625566
19946,0.153274536,0.023493083,0.120315552,0.014475832,0.1927948,0.037169835,0.274114484,1375783.418,1537499692,37.81402366,-122.2625566
19947,-0.018936157,0.000358578,0.252456665,0.063734368,-0.287002563,0.082370471,0.382705392,1375783.477,1537499692,37.81402366,-122.2625566
19948,0.090332031,0.008159876,0.816360474,0.666444424,-0.16267395,0.026462814,0.837297506,1375783.537,1537499693,37.81393879,-122.2624857
19949,-0.05241394,0.002747221,-0.17401123,0.030279908,0.121551514,0.014774771,0.218636456,1375783.597,1537499693,37.81393879,-122.2624857
19950,0.045852661,0.002102467,0.713027954,0.508408863,-0.07850647,0.006163266,0.718800804,1375783.656,1537499693,37.81393879,-122.2624857
19951,0.201065063,0.04042716,1.018920898,1.038199796,0.048095703,0.002313197,1.039682717,1375783.716,1537499693,37.81393879,-122.2624857
19952,0.038772583,0.001503313,0.433898926,0.188268278,0.064834595,0.004203525,0.440426062,1375783.776,1537499693,37.81393879,-122.2624857
19953,0.357666016,0.127924979,0.858001709,0.736166933,-0.232666016,0.054133475,0.958240777,1375783.835,1537499693,37.81393879,-122.2624857
19954,0.480865479,0.231231609,1.139556885,1.298589894,-0.374359131,0.140144759,1.292271745,1375783.895,1537499693,37.81393879,-122.2624857
19955,0.301620483,0.090974916,1.099411011,1.208704571,-0.104064941,0.010829512,1.14477465,1375783.955,1537499693,37.81393879,-122.2624857
19956,0.050521851,0.002552457,0.215606689,0.046486244,0.035400391,0.001253188,0.224258533,1375784.014,1537499693,37.81393879,-122.2624857
19957,0.119140625,0.014194489,0.619781494,0.3841291,-0.148010254,0.021907035,0.648251976,1375784.074,1537499693,37.81393879,-122.2624857
19958,0.134277344,0.018030405,0.985046387,0.970316385,-0.004089355,1.67E-05,0.994164731,1375784.134,1537499693,37.81393879,-122.2624857
19959,0.457962036,0.209729226,1.754882813,3.079613687,-0.33770752,0.114046369,1.844827711,1375784.193,1537499693,37.81393879,-122.2624857
19960,0.267684937,0.071655225,1.239700317,1.536856876,-0.154846191,0.023977343,1.277689103,1375784.253,1537499693,37.81393879,-122.2624857
19961,0.37940979,0.143951789,1.195648193,1.429574601,-0.50692749,0.25697548,1.35296041,1375784.312,1537499693,37.81393879,-122.2624857
19962,0.208053589,0.043286296,0.522781372,0.273300363,0.038848877,0.001509235,0.563999906,1375784.372,1537499693,37.81393879,-122.2624857
19963,-0.028701782,0.000823792,-0.073623657,0.005420443,0.07069397,0.004997637,0.106027697,1375784.432,1537499693,37.81393879,-122.2624857
19964,0.09538269,0.009097858,0.932937622,0.870372607,-0.387985229,0.150532538,1.014890635,1375784.491,1537499693,37.81393879,-122.2624857
19965,0.437683105,0.1915665,1.438156128,2.068293049,-0.055770874,0.00311039,1.504317101,1375784.551,1537499694,37.81386752,-122.2624322
19966,0.370117188,0.136986733,1.526184082,2.329237852,-0.374389648,0.140167609,1.614432468,1375784.611,1537499694,37.81386752,-122.2624322
19967,0.214309692,0.045928644,1.285980225,1.653745139,-0.167892456,0.028187877,1.314481518,1375784.67,1537499694,37.81386752,-122.2624322
19968,0.253036499,0.06402747,1.037078857,1.075532556,0.037582397,0.001412437,1.068163125,1375784.73,1537499694,37.81386752,-122.2624322
19969,0.007354736,5.41E-05,0.567993164,0.322616234,-0.022781372,0.000518991,0.568497421,1375784.79,1537499694,37.81386752,-122.2624322
19970,0.225463867,0.050833955,1.248687744,1.559221082,0.217987061,0.047518359,1.287467823,1375784.849,1537499694,37.81386752,-122.2624322
19971,0.419708252,0.176155017,1.159805298,1.345148329,0.149230957,0.022269879,1.242406224,1375784.909,1537499694,37.81386752,-122.2624322
19972,0.481384277,0.231730822,1.223876953,1.497874796,-0.173538208,0.03011551,1.326544808,1375784.969,1537499694,37.81386752,-122.2624322
19973,0.216308594,0.046789408,0.627563477,0.393835918,-0.226593018,0.051344396,0.701405533,1375785.028,1537499694,37.81386752,-122.2624322
19974,0.142913818,0.020424359,0.46685791,0.217956308,-0.222717285,0.049602989,0.536641087,1375785.088,1537499694,37.81386752,-122.2624322
19975,0.204727173,0.041913215,1.144042969,1.308834315,-0.19921875,0.03968811,1.179167351,1375785.148,1537499694,37.81386752,-122.2624322
19976,0.201187134,0.040476263,0.69593811,0.484329853,0.132675171,0.017602701,0.736484091,1375785.207,1537499694,37.81386752,-122.2624322
19977,0.225219727,0.050723925,1.047393799,1.09703377,-0.225082397,0.050662085,1.094723609,1375785.267,1537499694,37.81386752,-122.2624322
19978,-0.150939941,0.022782866,0.002716064,7.38E-06,-0.162506104,0.026408234,0.221807296,1375785.327,1537499694,37.81386752,-122.2624322
19979,0.357177734,0.127575934,1.485702515,2.207311963,-0.401062012,0.160850737,1.579790693,1375785.386,1537499694,37.81386752,-122.2624322
19980,0.174880981,0.030583358,0.89213562,0.795905964,-0.056915283,0.003239349,0.910894435,1375785.446,1537499694,37.81386752,-122.2624322
19981,0.091033936,0.008287178,0.318084717,0.101177887,-0.109085083,0.011899555,0.348374253,1375785.506,1537499694,37.81386752,-122.2624322
19982,0.171768188,0.02950431,0.498840332,0.248841677,-0.168518066,0.028398339,0.553845038,1375785.565,1537499695,37.81374145,-122.2623439
19983,0.075485229,0.00569802,0.245147705,0.060097397,-0.05657959,0.00320125,0.262672167,1375785.625,1537499695,37.81374145,-122.2623439
19984,0.263183594,0.069265604,0.980987549,0.962336571,-0.67364502,0.453797613,1.218769785,1375785.685,1537499695,37.81374145,-122.2623439
19985,0.159637451,0.025484116,0.707229614,0.500173727,0.005264282,2.77E-05,0.725041761,1375785.744,1537499695,37.81374145,-122.2623439
19986,-0.013290405,0.000176635,-0.139328003,0.019412292,0.195556641,0.0382424,0.240481449,1375785.804,1537499695,37.81374145,-122.2623439
19987,0.32484436,0.105523858,1.434616089,2.058123323,-0.308166504,0.094966594,1.502868516,1375785.863,1537499695,37.81374145,-122.2623439
19988,0.315795898,0.099727049,1.187026978,1.409033046,-0.119537354,0.014289179,1.234118825,1375785.923,1537499695,37.81374145,-122.2623439
19989,0.343139648,0.117744818,1.122940063,1.260994385,-0.162063599,0.02626461,1.185328568,1375785.983,1537499695,37.81374145,-122.2623439
19990,0.330490112,0.109223714,1.405914307,1.976595039,-0.19442749,0.037802049,1.457264836,1375786.042,1537499695,37.81374145,-122.2623439
19991,0.589675903,0.347717671,2.309387207,5.333269272,-0.308807373,0.095361994,2.403403615,1375786.102,1537499695,37.81374145,-122.2623439
19992,0.15071106,0.022713824,0.691146851,0.47768397,-0.734054565,0.538836104,1.019428221,1375786.162,1537499695,37.81374145,-122.2623439
19993,0.196166992,0.038481489,0.517288208,0.26758709,0.198257446,0.039306015,0.587685795,1375786.221,1537499695,37.81374145,-122.2623439
19994,0.631912231,0.399313068,2.094787598,4.388135081,0.432647705,0.187184037,2.230388348,1375786.281,1537499695,37.81374145,-122.2623439
19995,0.192077637,0.036893819,0.829467773,0.688016786,-0.397857666,0.158290722,0.939787916,1375786.341,1537499695,37.81374145,-122.2623439
19996,0.072402954,0.005242188,0.789199829,0.62283637,-0.201675415,0.040672973,0.817772298,1375786.4,1537499695,37.81374145,-122.2623439
19997,0.165847778,0.027505485,1.077438354,1.160873407,-0.391799927,0.153507183,1.158398064,1375786.46,1537499695,37.81374145,-122.2623439
19998,0.172912598,0.029898767,0.457611084,0.209407904,-0.102035522,0.010411248,0.499717839,1375786.52,1537499695,37.81374145,-122.2623439
19999,0.086700439,0.007516966,0.55027771,0.302805558,-0.081848145,0.006699119,0.56304675,1375786.579,1537499696,37.8136688,-122.2622948
20000,0.174209595,0.030348983,0.456039429,0.207971961,0.058181763,0.003385118,0.491636107,1375786.639,1537499696,37.8136688,-122.2622948
20001,0.090454102,0.008181945,0.493087769,0.243135548,0.009475708,8.98E-05,0.501405307,1375786.699,1537499696,37.8136688,-122.2622948
20002,0.40145874,0.16116912,1.448516846,2.098201053,-0.176437378,0.031130148,1.513439897,1375786.758,1537499696,37.8136688,-122.2622948
20003,0.349517822,0.122162708,1.38671875,1.922988892,-0.046905518,0.002200128,1.43085699,1375786.818,1537499696,37.8136688,-122.2622948
20004,0.239959717,0.057580666,0.898971558,0.808149862,-0.105606079,0.011152644,0.936420403,1375786.878,1537499696,37.8136688,-122.2622948
20005,0.359664917,0.129358853,1.449234009,2.100279213,-0.218002319,0.047525011,1.509027195,1375786.937,1537499696,37.8136688,-122.2622948
20006,0.39440918,0.155558601,1.211395264,1.467478486,-0.129119873,0.016671942,1.280511237,1375786.997,1537499696,37.8136688,-122.2622948
20007,0.149856567,0.022456991,0.656204224,0.430603984,-0.154373169,0.023831075,0.69057371,1375787.056,1537499696,37.8136688,-122.2622948
20008,0.215011597,0.046229987,0.824249268,0.679386856,-0.102111816,0.010426823,0.857929872,1375787.116,1537499696,37.8136688,-122.2622948
20009,0.164871216,0.027182518,0.506500244,0.256542497,-0.065765381,0.004325085,0.536702991,1375787.176,1537499696,37.8136688,-122.2622948
20010,0.30796814,0.094844375,1.195129395,1.428334271,-0.268722534,0.0722118,1.263087664,1375787.235,1537499696,37.8136688,-122.2622948
20011,0.095230103,0.009068773,0.586395264,0.343859406,0.039108276,0.001529457,0.595363448,1375787.295,1537499696,37.8136688,-122.2622948
20012,0.265548706,0.070516115,0.993743896,0.987526931,-0.123168945,0.015170589,1.035960248,1375787.355,1537499696,37.8136688,-122.2622948
20013,0.254547119,0.064794236,0.914703369,0.836682253,-0.019287109,0.000371993,0.949657034,1375787.414,1537499696,37.8136688,-122.2622948
20014,0.19102478,0.036490467,0.905654907,0.820210811,-0.237213135,0.056270071,0.955495342,1375787.474,1537499696,37.8136688,-122.2622948
20015,0.287597656,0.082712412,1.025375366,1.051394641,-0.235168457,0.055304203,1.090601328,1375787.534,1537499696,37.8136688,-122.2622948
20016,0.304092407,0.092472192,1.167831421,1.363830228,-0.094955444,0.009016536,1.210503596,1375787.593,1537499697,37.8135493,-122.2622801
20017,0.249481201,0.06224087,0.940536499,0.884608906,-0.316207886,0.099987427,1.023150626,1375787.653,1537499697,37.8135493,-122.2622801
20018,0.256698608,0.065894175,0.874252319,0.764317117,-0.413024902,0.17058957,1.000400351,1375787.713,1537499697,37.8135493,-122.2622801
20019,0.334655762,0.111994479,1.370727539,1.878893986,-0.272338867,0.074168458,1.437030592,1375787.772,1537499697,37.8135493,-122.2622801
20020,0.264694214,0.070063027,1.084259033,1.175617651,-0.241790771,0.058462777,1.141991005,1375787.832,1537499697,37.8135493,-122.2622801
20021,0.271011353,0.073447153,0.500335693,0.250335806,0.136978149,0.018763013,0.585274271,1375787.892,1537499697,37.8135493,-122.2622801
20022,0.15461731,0.023906513,0.64453125,0.415420532,-0.086029053,0.007400998,0.668377171,1375787.951,1537499697,37.8135493,-122.2622801
20023,0.050109863,0.002510998,0.39024353,0.152290013,-0.16708374,0.027916976,0.427455246,1375788.011,1537499697,37.8135493,-122.2622801
20024,0.321685791,0.103481748,1.088317871,1.184435788,-0.439056396,0.192770519,1.216835262,1375788.071,1537499697,37.8135493,-122.2622801
20025,0.08795166,0.007735494,0.49786377,0.247868333,-0.144226074,0.02080116,0.525742321,1375788.13,1537499697,37.8135493,-122.2622801
20026,0.019134521,0.00036613,0.341094971,0.116345779,-0.412460327,0.170123521,0.535570192,1375788.19,1537499697,37.8135493,-122.2622801
20027,0.324508667,0.105305875,0.950836182,0.904089445,-0.265625,0.070556641,1.039207371,1375788.25,1537499697,37.8135493,-122.2622801
20028,0.266662598,0.071108941,1.219619751,1.487472337,-0.40385437,0.163098352,1.312127902,1375788.309,1537499697,37.8135493,-122.2622801
20029,0.336273193,0.11307966,1.468093872,2.155299617,0.089935303,0.008088359,1.508796751,1375788.369,1537499697,37.8135493,-122.2622801
20030,0.260803223,0.068018321,0.848678589,0.720255347,-0.018051147,0.000325844,0.888031256,1375788.429,1537499697,37.8135493,-122.2622801
20031,0.144378662,0.020845198,0.401062012,0.160850737,0.098220825,0.00964733,0.437428012,1375788.488,1537499697,37.8135493,-122.2622801
20032,0.249801636,0.062400857,1.104812622,1.22061093,0.005050659,2.55E-05,1.132712363,1375788.548,1537499698,37.81348153,-122.2622297
20033,0.378051758,0.142923132,1.522537231,2.31811962,-0.20652771,0.042653695,1.582307317,1375788.608,1537499698,37.81348153,-122.2622297
20034,0.542114258,0.293887869,1.983612061,3.934716809,-0.364654541,0.132972934,2.088439037,1375788.667,1537499698,37.81348153,-122.2622297
20035,0.248016357,0.061512113,1.096939087,1.203275361,-0.20652771,0.042653695,1.143433937,1375788.727,1537499698,37.81348153,-122.2622297
20036,0.394424438,0.155570637,1.748840332,3.058442507,-0.286956787,0.082344198,1.815587327,1375788.787,1537499698,37.81348153,-122.2622297
20037,0.279663086,0.078211442,1.054382324,1.111722085,-0.003814697,1.46E-05,1.090847413,1375788.846,1537499698,37.81348153,-122.2622297
20038,0.328582764,0.107966633,1.093719482,1.196222305,-0.259689331,0.067438549,1.171165013,1375788.906,1537499698,37.81348153,-122.2622297
20039,0.328643799,0.108006747,1.597793579,2.552944321,-0.293045044,0.085875398,1.657355262,1375788.966,1537499698,37.81348153,-122.2622297
20040,0.2081604,0.043330752,0.708511353,0.501988337,-0.010314941,0.000106398,0.738529273,1375789.025,1537499698,37.81348153,-122.2622297
20041,0.40864563,0.166991251,1.140319824,1.300329301,-0.060165405,0.003619876,1.212823329,1375789.085,1537499698,37.81348153,-122.2622297
20042,0.151428223,0.022930507,1.015289307,1.030812377,-0.153808594,0.023657084,1.037978789,1375789.145,1537499698,37.81348153,-122.2622297
20043,0.786773682,0.619012827,2.140899658,4.583451346,-0.379577637,0.144079183,2.312259361,1375789.204,1537499698,37.81348153,-122.2622297
20044,0.035049438,0.001228463,0.54977417,0.302251638,0.069534302,0.004835019,0.555261308,1375789.264,1537499698,37.81348153,-122.2622297
20045,0.441879272,0.195257291,1.167175293,1.362298165,-0.177642822,0.031556972,1.260600027,1375789.324,1537499698,37.81348153,-122.2622297
20046,0.125595093,0.015774127,0.695907593,0.484287378,-0.1378479,0.019002044,0.72046065,1375789.383,1537499698,37.81348153,-122.2622297
20047,0.206008911,0.042439671,0.826217651,0.682635607,-0.423065186,0.178984152,0.950820398,1375789.443,1537499698,37.81348153,-122.2622297
20048,0.251403809,0.063203875,1.120697021,1.255961813,-0.121032715,0.014648918,1.154908917,1375789.503,1537499698,37.81348153,-122.2622297
20049,0.230133057,0.052961224,0.678512573,0.460379312,-0.03604126,0.001298972,0.717383794,1375789.562,1537499699,37.81340752,-122.2621818
20050,0.26914978,0.072441604,1.258407593,1.58358967,-0.212814331,0.045289939,1.304347045,1375789.622,1537499699,37.81340752,-122.2621818
20051,0.06968689,0.004856263,0.36366272,0.132250574,0.068161011,0.004645923,0.376500677,1375789.682,1537499699,37.81340752,-122.2621818
20052,0.040664673,0.001653616,0.18347168,0.033661857,-0.064285278,0.004132597,0.198615382,1375789.741,1537499699,37.81340752,-122.2621818
20053,0.164459229,0.027046838,1.110015869,1.232135229,-0.244598389,0.059828372,1.148481798,1375789.801,1537499699,37.81340752,-122.2621818
20054,0.283340454,0.080281813,1.115036011,1.243305306,-0.405685425,0.164580664,1.219904825,1375789.861,1537499699,37.81340752,-122.2621818
20055,0.346694946,0.120197386,0.982894897,0.966082379,-0.048416138,0.002344122,1.043371404,1375789.92,1537499699,37.81340752,-122.2621818
20056,0.056060791,0.003142812,0.231643677,0.053658793,-0.176712036,0.031227144,0.296696392,1375789.98,1537499699,37.81340752,-122.2621818
20057,0.358688354,0.128657335,1.303985596,1.700378435,-0.456771851,0.208640524,1.427471994,1375790.039,1537499699,37.81340752,-122.2621818
20058,0.249282837,0.062141933,0.781295776,0.61042309,-0.184020996,0.033863727,0.840493158,1375790.099,1537499699,37.81340752,-122.2621818
20059,0.124908447,0.01560212,0.546447754,0.298605148,-0.197769165,0.039112643,0.594407193,1375790.159,1537499699,37.81340752,-122.2621818
20060,0.152053833,0.023120368,0.658920288,0.434175946,-0.122283936,0.014953361,0.687204246,1375790.218,1537499699,37.81340752,-122.2621818
20061,0.165222168,0.027298365,0.874404907,0.764583941,-0.05015564,0.002515588,0.891290017,1375790.278,1537499699,37.81340752,-122.2621818
20062,0.133499146,0.017822022,0.766815186,0.588005529,-0.101425171,0.010287065,0.784929689,1375790.338,1537499699,37.81340752,-122.2621818
20063,0.196487427,0.038607309,0.935577393,0.875305058,-0.345504761,0.11937354,1.016506718,1375790.397,1537499699,37.81340752,-122.2621818
20064,0.26399231,0.06969194,0.865524292,0.7491323,-0.16456604,0.027081982,0.919731603,1375790.457,1537499699,37.81340752,-122.2621818
20065,0.120285034,0.014468489,0.770599365,0.593823381,0.174468994,0.03043943,0.79920667,1375790.517,1537499700,37.81333212,-122.2621319
20066,0.233840942,0.054681586,0.827789307,0.685235137,-0.306549072,0.093972334,0.913175261,1375790.576,1537499700,37.81333212,-122.2621319
20067,0.369384766,0.136445105,1.286056519,1.65394137,-0.561782837,0.315599956,1.45120172,1375790.636,1537499700,37.81333212,-122.2621319
20068,0.168624878,0.028434349,1.018737793,1.037826691,-0.124588013,0.015522173,1.04008808,1375790.696,1537499700,37.81333212,-122.2621319
20069,0.239852905,0.057529416,0.981292725,0.962935412,-0.180007935,0.032402857,1.026093409,1375790.755,1537499700,37.81333212,-122.2621319
20070,0.185546875,0.034427643,0.79208374,0.627396651,0.071502686,0.005112634,0.816662065,1375790.815,1537499700,37.81333212,-122.2621319
20071,0.167434692,0.028034376,0.725860596,0.526873605,-0.242874146,0.058987851,0.783515049,1375790.875,1537499700,37.81333212,-122.2621319
20072,0.018447876,0.000340324,0.284866333,0.081148828,-0.052154541,0.002720096,0.290188297,1375790.934,1537499700,37.81333212,-122.2621319
20073,0.201477051,0.040593002,0.826583862,0.683240881,0.191558838,0.036694788,0.87208295,1375790.994,1537499700,37.81333212,-122.2621319
20074,0.099487305,0.009897724,0.436523438,0.190552712,-0.266952515,0.071263645,0.521262008,1375791.054,1537499700,37.81333212,-122.2621319
20075,0.365585327,0.133652631,1.159393311,1.34419285,0.041870117,0.001753107,1.216387515,1375791.113,1537499700,37.81333212,-122.2621319
20076,0.202178955,0.04087633,0.393783569,0.155065499,0.071548462,0.005119182,0.448398273,1375791.173,1537499700,37.81333212,-122.2621319
20077,0.499145508,0.249146238,2.441970825,5.96322151,-0.240753174,0.057962091,2.504062667,1375791.233,1537499700,37.81333212,-122.2621319
20078,0.084136963,0.007079029,0.707763672,0.500929415,-0.167800903,0.028157143,0.732233287,1375791.292,1537499700,37.81333212,-122.2621319
20079,0.601287842,0.361547069,1.917617798,3.677258019,-0.18598938,0.034592049,2.018265874,1375791.352,1537499700,37.81333212,-122.2621319
20080,0.24446106,0.05976121,1.174942017,1.380488743,0.418319702,0.174991373,1.270921448,1375791.412,1537499700,37.81333212,-122.2621319
20081,0.269088745,0.072408753,0.881790161,0.777553888,-0.066040039,0.004361287,0.92429645,1375791.471,1537499700,37.81333212,-122.2621319
20082,0.231109619,0.053411656,1.208999634,1.461680115,-0.30027771,0.090166703,1.266987953,1375791.531,1537499701,37.81326217,-122.262075
20083,0.290496826,0.084388406,1.055862427,1.114845465,-0.002761841,7.63E-06,1.095098853,1375791.591,1537499701,37.81326217,-122.262075
20084,0.22819519,0.052073045,1.094741821,1.198459655,0.050949097,0.00259581,1.119432227,1375791.65,1537499701,37.81326217,-122.262075
20085,0.31312561,0.098047648,1.211273193,1.467182748,-0.030654907,0.000939723,1.251467187,1375791.71,1537499701,37.81326217,-122.262075
20086,0.267776489,0.071704248,0.967971802,0.936969409,-0.117462158,0.013797359,1.011173089,1375791.769,1537499701,37.81326217,-122.262075
20087,0.160095215,0.025630478,1.220626831,1.489929861,-0.350860596,0.123103158,1.280102924,1375791.829,1537499701,37.81326217,-122.262075
20088,0.113922119,0.012978249,0.830795288,0.690220811,-0.168884277,0.028521899,0.855406897,1375791.889,1537499701,37.81326217,-122.262075
20089,0.206436157,0.042615887,0.861297607,0.741833568,-0.101318359,0.01026541,0.891467815,1375791.948,1537499701,37.81326217,-122.262075
20090,0.40914917,0.167403043,1.524276733,2.323419559,-0.257369995,0.066239314,1.599081585,1375792.008,1537499701,37.81326217,-122.262075
20091,0.250778198,0.062889705,0.9634552,0.928245922,-0.039886475,0.001590931,0.996356642,1375792.068,1537499701,37.81326217,-122.262075
20092,0.35760498,0.127881322,1.249343872,1.560860111,-0.408050537,0.166505241,1.362074401,1375792.127,1537499701,37.81326217,-122.262075
20093,0.016387939,0.000268565,-0.150787354,0.022736826,0.133987427,0.017952631,0.202380882,1375792.187,1537499701,37.81326217,-122.262075
20094,0.185119629,0.034269277,0.673217773,0.45322217,0.118560791,0.014056661,0.708200613,1375792.247,1537499701,37.81326217,-122.262075
20095,0.702682495,0.493762689,1.635131836,2.673656121,-0.33946228,0.11523464,1.811809441,1375792.306,1537499701,37.81326217,-122.262075
20096,0.376480103,0.141737268,1.608062744,2.585865789,0.064880371,0.004209463,1.652819566,1375792.366,1537499701,37.81326217,-122.262075
20097,0.803436279,0.645509854,2.045959473,4.185950165,-0.366668701,0.134445936,2.228431277,1375792.426,1537499701,37.81326217,-122.262075
20098,-0.0184021,0.000338637,0.318374634,0.101362408,-0.058410645,0.003411803,0.324211117,1375792.485,1537499702,37.81319817,-122.2620281
20099,0.06262207,0.003921524,0.145355225,0.021128141,-0.055435181,0.003073059,0.167698314,1375792.545,1537499702,37.81319817,-122.2620281
20100,0.430664063,0.185471535,1.535614014,2.3581104,-0.334259033,0.111729101,1.629512515,1375792.605,1537499702,37.81319817,-122.2620281
20101,-0.053131104,0.002822914,-0.084335327,0.007112447,0.195632935,0.038272245,0.219562307,1375792.664,1537499702,37.81319817,-122.2620281
20102,0.182800293,0.033415947,0.910476685,0.828967794,-0.075271606,0.005665815,0.931691771,1375792.724,1537499702,37.81319817,-122.2620281
20103,0.240890503,0.058028234,0.764419556,0.584337258,-0.334640503,0.111984266,0.868533107,1375792.784,1537499702,37.81319817,-122.2620281
20104,0.158981323,0.025275061,0.276809692,0.076623606,-0.353149414,0.124714509,0.476039048,1375792.843,1537499702,37.81319817,-122.2620281
20105,0.194458008,0.037813917,0.934234619,0.872794323,-0.189956665,0.036083535,0.972980871,1375792.903,1537499702,37.81319817,-122.2620281
20106,0.324371338,0.105216765,1.414672852,2.001299278,-0.11491394,0.013205214,1.455926254,1375792.963,1537499702,37.81319817,-122.2620281
20107,0.247695923,0.06135327,1.14730835,1.31631645,-0.070632935,0.004989012,1.175865099,1375793.022,1537499702,37.81319817,-122.2620281
20108,0.203521729,0.041421094,0.775909424,0.602035434,-0.011993408,0.000143842,0.802247076,1375793.082,1537499702,37.81319817,-122.2620281
20109,0.186553955,0.034802378,0.755355835,0.570562437,-0.28729248,0.082536969,0.829398447,1375793.142,1537499702,37.81319817,-122.2620281
20110,0.223648071,0.05001846,0.977615356,0.955731784,-0.403518677,0.162827323,1.081007663,1375793.201,1537499702,37.81319817,-122.2620281
20111,0.309570313,0.095833779,0.724395752,0.524749206,-0.020294189,0.000411854,0.788032257,1375793.261,1537499702,37.81319817,-122.2620281
20112,0.252349854,0.063680449,0.736602783,0.54258366,-0.03465271,0.00120081,0.779400359,1375793.32,1537499702,37.81319817,-122.2620281
20113,0.304794312,0.092899573,0.984054565,0.968363387,-0.123916626,0.01535533,1.037602183,1375793.38,1537499702,37.81319817,-122.2620281
20114,0.293945313,0.086403847,1.432174683,2.051124323,0.027420044,0.000751859,1.462285891,1375793.44,1537499702,37.81319817,-122.2620281
20115,0.314239502,0.098746465,1.567092896,2.455780145,-0.243026733,0.059061993,1.616659705,1375793.499,1537499702,37.81319817,-122.2620281
20116,0.278244019,0.077419734,1.316940308,1.734331775,-0.121994019,0.014882541,1.351530262,1375793.559,1537499703,37.81314102,-122.2619834
20117,0.221435547,0.049033701,0.804580688,0.647350084,-0.046707153,0.002181558,0.835802215,1375793.619,1537499703,37.81314102,-122.2619834
20118,0.099685669,0.009937233,0.772064209,0.596083143,0.107147217,0.011480526,0.785812256,1375793.678,1537499703,37.81314102,-122.2619834
20119,0.227859497,0.05191995,0.895889282,0.802617606,-0.079589844,0.006334543,0.927831935,1375793.738,1537499703,37.81314102,-122.2619834
20120,0.447113037,0.199910068,1.865280151,3.479270042,-0.122375488,0.01497576,1.922018696,1375793.798,1537499703,37.81314102,-122.2619834
20121,0.520690918,0.271119032,1.797103882,3.229582363,0.021408081,0.000458306,1.871138611,1375793.857,1537499703,37.81314102,-122.2619834
20122,0.295516968,0.087330278,0.765182495,0.585504251,0.08946228,0.0080035,0.825129098,1375793.917,1537499703,37.81314102,-122.2619834
20123,0.277160645,0.076818023,1.119033813,1.252236675,-0.109924316,0.012083355,1.15807515,1375793.977,1537499703,37.81314102,-122.2619834
20124,0.19581604,0.038343922,0.485931396,0.236129322,0.189819336,0.03603138,0.557229417,1375794.036,1537499703,37.81314102,-122.2619834
20125,0.046356201,0.002148897,0.272155762,0.074068759,0.136947632,0.018754654,0.308175778,1375794.096,1537499703,37.81314102,-122.2619834
20126,0.153381348,0.023525838,0.75958252,0.576965605,-0.04335022,0.001879242,0.776125431,1375794.156,1537499703,37.81314102,-122.2619834
20127,0.237533569,0.056422196,0.757125854,0.573239559,0.070632935,0.004989012,0.796649714,1375794.215,1537499703,37.81314102,-122.2619834
20128,0.310836792,0.096619511,1.134033203,1.286031306,-0.159011841,0.025284766,1.186564614,1375794.275,1537499703,37.81314102,-122.2619834
20129,0.207229614,0.042944113,0.871200562,0.758990419,0.210830688,0.044449579,0.919991365,1375794.335,1537499703,37.81314102,-122.2619834
20130,0.278762817,0.077708708,1.029678345,1.060237494,-0.024276733,0.00058936,1.067021819,1375794.394,1537499703,37.81314102,-122.2619834
20131,0.31628418,0.100035683,1.145950317,1.313202129,-0.034515381,0.001191312,1.189297744,1375794.454,1537499703,37.81314102,-122.2619834
20132,0.165649414,0.027439728,0.935852051,0.875819061,0.088165283,0.007773117,0.954479914,1375794.514,1537499704,37.81307988,-122.2619356
20133,0.322418213,0.103953504,0.982162476,0.964643129,-0.0572052,0.003272435,1.035311097,1375794.573,1537499704,37.81307988,-122.2619356
20134,0.151779175,0.023036918,1.03427124,1.069716998,-0.170196533,0.02896686,1.059113202,1375794.633,1537499704,37.81307988,-122.2619356
20135,-0.021713257,0.000471466,-0.094116211,0.008857861,0.196151733,0.038475502,0.218643155,1375794.693,1537499704,37.81307988,-122.2619356
20136,0.146270752,0.021395133,0.610839844,0.373125315,-0.094650269,0.008958673,0.635200064,1375794.752,1537499704,37.81307988,-122.2619356
20137,0.375595093,0.141071674,1.354034424,1.833409221,-0.062042236,0.003849239,1.406531242,1375794.812,1537499704,37.81307988,-122.2619356
20138,0.116287231,0.01352272,0.727905273,0.529846086,0.213851929,0.045732648,0.767529448,1375794.872,1537499704,37.81307988,-122.2619356
20139,0.278900146,0.077785291,0.949783325,0.902088364,-0.257537842,0.06632574,1.022838891,1375794.931,1537499704,37.81307988,-122.2619356
20140,0.167358398,0.028008833,0.626647949,0.392687652,-0.1015625,0.010314941,0.656514605,1375794.991,1537499704,37.81307988,-122.2619356
20141,0.176895142,0.031291891,0.910003662,0.828106665,-0.093582153,0.008757619,0.931748987,1375795.051,1537499704,37.81307988,-122.2619356
20142,0.237579346,0.056443946,0.874023438,0.76391697,-0.076599121,0.005867425,0.908971034,1375795.11,1537499704,37.81307988,-122.2619356
20143,0.252609253,0.063811435,0.969436646,0.939807411,0.143630981,0.020629859,1.01205173,1375795.17,1537499704,37.81307988,-122.2619356
20144,0.381149292,0.145274783,0.785552979,0.617093483,0.113342285,0.012846474,0.880462798,1375795.23,1537499704,37.81307988,-122.2619356
20145,0.2787323,0.077691695,1.291488647,1.667942925,-0.102523804,0.01051113,1.325196495,1375795.289,1537499704,37.81307988,-122.2619356
20146,0.242797852,0.058950797,0.79776001,0.636421034,0.053726196,0.002886504,0.835618534,1375795.349,1537499704,37.81307988,-122.2619356
20147,0.701599121,0.492241327,1.953765869,3.817201071,-0.604919434,0.365927522,2.162260373,1375795.409,1537499704,37.81307988,-122.2619356
20148,0.060974121,0.003717843,0.780685425,0.609469733,0.243713379,0.059396211,0.820112058,1375795.468,1537499704,37.81307988,-122.2619356
20149,0.289764404,0.08396341,1.261856079,1.592280764,0.121109009,0.014667392,1.300350555,1375795.528,1537499705,37.81303681,-122.2619019
20150,0.14201355,0.020167848,0.356628418,0.127183829,-0.078475952,0.006158475,0.391803716,1375795.588,1537499705,37.81303681,-122.2619019
20151,0.191894531,0.036823511,0.781585693,0.610876196,0.218521118,0.047751479,0.833937159,1375795.647,1537499705,37.81303681,-122.2619019
20152,0.13571167,0.018417657,0.422729492,0.178700223,0.192001343,0.036864516,0.483717269,1375795.707,1537499705,37.81303681,-122.2619019
20153,-0.007598877,5.77E-05,0.188568115,0.035557934,-0.079421997,0.006307854,0.204752364,1375795.767,1537499705,37.81303681,-122.2619019
20154,0.827606201,0.684932024,2.470794678,6.104826341,-0.119003296,0.014161784,2.608432508,1375795.826,1537499705,37.81303681,-122.2619019
20155,0.319946289,0.102365628,1.608459473,2.587141876,0.059707642,0.003565003,1.64105835,1375795.886,1537499705,37.81303681,-122.2619019
20156,0.262924194,0.069129132,1.028457642,1.057725121,-0.040039063,0.001603127,1.062288746,1375795.946,1537499705,37.81303681,-122.2619019
20157,0.258666992,0.066908613,0.72694397,0.528447536,0.00617981,3.82E-05,0.771618,1375796.005,1537499705,37.81303681,-122.2619019
20158,0.329910278,0.108840792,1.150558472,1.323784797,-0.05859375,0.003433228,1.198356715,1375796.065,1537499705,37.81303681,-122.2619019
20159,0.180206299,0.03247431,0.9506073,0.903654239,0.237594604,0.056451196,0.996282964,1375796.125,1537499705,37.81303681,-122.2619019
20160,0.263565063,0.069466542,0.857437134,0.735198439,-0.078338623,0.00613694,0.900445401,1375796.184,1537499705,37.81303681,-122.2619019
20161,0.294326782,0.086628255,1.079421997,1.165151848,-0.133422852,0.017801657,1.126757188,1375796.244,1537499705,37.81303681,-122.2619019
20162,0.148406982,0.022024632,0.873016357,0.76215756,0.147537231,0.021767235,0.897746861,1375796.304,1537499705,37.81303681,-122.2619019
20163,0.209747314,0.043993936,1.108474731,1.228716229,0.102539063,0.010514259,1.132794961,1375796.363,1537499705,37.81303681,-122.2619019
20164,0.370864868,0.13754075,1.333587646,1.77845601,-0.089782715,0.008060936,1.387104068,1375796.423,1537499705,37.81303681,-122.2619019
20165,0.472595215,0.223346237,1.363525391,1.859201492,-0.233840942,0.054681586,1.461926577,1375796.483,1537499706,37.81299834,-122.2618712
20166,0.168670654,0.02844979,1.010177612,1.020458808,0.020339966,0.000413714,1.024364345,1375796.542,1537499706,37.81299834,-122.2618712
20167,0.132827759,0.017643214,0.767944336,0.589738503,-0.085906982,0.00738001,0.784067425,1375796.602,1537499706,37.81299834,-122.2618712
20168,0.30065918,0.090395943,0.889541626,0.791284304,-0.192352295,0.036999405,0.958477779,1375796.662,1537499706,37.81299834,-122.2618712
20169,0.311737061,0.097179995,1.158172607,1.341363788,0.117034912,0.013697171,1.205089604,1375796.721,1537499706,37.81299834,-122.2618712
20170,0.301773071,0.091066986,1.169250488,1.367146704,-0.071456909,0.00510609,1.209677552,1375796.781,1537499706,37.81299834,-122.2618712
20171,0.251449585,0.063226894,1.011062622,1.022247626,-0.140136719,0.0196383,1.051243463,1375796.84,1537499706,37.81299834,-122.2618712
20172,0.295516968,0.087330278,1.074203491,1.15391314,-0.148345947,0.02200652,1.123943921,1375796.9,1537499706,37.81299834,-122.2618712
20173,0.261764526,0.068520667,0.780075073,0.60851712,-0.080490112,0.006478658,0.826750534,1375796.96,1537499706,37.81299834,-122.2618712
20174,0.26550293,0.070491806,1.184341431,1.402664625,0.000671387,4.51E-07,1.213736743,1375797.019,1537499706,37.81299834,-122.2618712
